"Time (s)","Linear Acceleration x (m/s^2)","Linear Acceleration y (m/s^2)","Linear Acceleration z (m/s^2)"
2.279373700E-2,-2.610804141E-2,-5.369267464E-1,-9.305162430E-1
3.075882500E-2,1.432215571E-1,-5.291461945E-1,-8.738961220E-1
3.863236000E-2,1.039187610E-1,-5.327272415E-1,-9.764223099E-1
4.650589500E-2,5.359897017E-2,-4.243383408E-1,-1.030838013E0
5.447098300E-2,2.805829048E-2,-3.535542488E-1,-1.065308094E0
6.234451800E-2,-4.598516226E-2,-3.189349174E-1,-9.150576591E-1
7.034012400E-2,-1.394138336E-1,-2.957267761E-1,-8.268985748E-1
7.830521100E-2,-2.479491681E-1,-3.532972336E-1,-7.812037468E-1
8.630081700E-2,-2.200055420E-1,-3.400983810E-1,-4.175567627E-1
9.423538700E-2,-1.564742774E-1,-2.915410995E-1,-1.707649231E-2
1.021089220E-1,-1.607824266E-1,-2.260828018E-1,2.688274384E-1
1.100434930E-1,-3.282338977E-1,-1.864104271E-1,3.235769272E-1
1.179170280E-1,-5.374163985E-1,-1.492176056E-1,2.180452347E-1
1.257905630E-1,-5.538829565E-1,-1.142630577E-1,6.891727448E-2
1.337251330E-1,-4.248079658E-1,-1.296982765E-1,1.069231033E-1
1.415986690E-1,-3.217521906E-1,-2.274084091E-1,-1.854810715E-1
1.495332390E-1,-2.348174155E-1,-3.306679726E-1,1.215591431E-1
1.574067740E-1,-5.622786283E-2,-2.286858559E-1,8.703804016E-2
1.653108270E-1,-5.099442601E-2,-1.092429161E-1,-5.674266815E-2
1.732759150E-1,-9.030757844E-2,-8.376169205E-2,-3.533401489E-1
1.811494500E-1,9.327366948E-3,-1.486625671E-1,-7.501540184E-1
1.890535030E-1,1.557293087E-1,-2.353620529E-1,-9.030752182E-1
1.969575550E-1,1.712655127E-1,-3.394680023E-1,-1.146131992E0
2.048310900E-1,1.263500750E-1,-4.329309464E-1,-1.259077072E0
2.127351430E-1,2.028834224E-1,-4.812746048E-1,-1.284627914E0
2.206697130E-1,2.633043826E-1,-5.665645599E-1,-1.075723648E0
2.285127310E-1,2.772598565E-1,-6.241931915E-1,-8.093647957E-1
2.364473010E-1,2.778461874E-1,-6.629614830E-1,-5.561795235E-1
2.443513540E-1,2.965396941E-1,-7.046241760E-1,-4.073228836E-1
2.522859240E-1,2.811572552E-1,-6.991438866E-1,-2.888593674E-1
2.601594600E-1,2.022992671E-1,-6.423110962E-1,-1.702041626E-1
2.680940300E-1,-4.105966538E-2,-5.197477341E-1,-3.299980164E-1
2.760286000E-1,-1.929410994E-1,-2.267069817E-1,-3.775587082E-1
2.839021350E-1,-1.804779321E-1,1.141018867E-1,-2.212524414E-2
2.918672230E-1,-1.762965620E-1,3.279232979E-1,2.977514267E-1
2.998017940E-1,-1.983047128E-1,4.389362335E-1,4.585924149E-1
3.077363640E-1,-2.197658867E-1,5.254778862E-1,4.945392609E-1
3.156404170E-1,-2.897506356E-1,6.735343933E-1,2.912511826E-1
3.235444690E-1,-3.493123353E-1,7.624583244E-1,7.201194763E-2
3.314790400E-1,-3.148238659E-1,8.345484734E-1,-2.013015747E-2
3.393525750E-1,-1.710339934E-1,8.975067139E-1,-7.737255096E-2
3.472261100E-1,-1.302480996E-1,8.526077271E-1,-3.917407990E-1
3.550996450E-1,-9.173646569E-2,7.610545158E-1,-6.072268486E-1
3.629731800E-1,-2.778075635E-2,6.864962578E-1,-8.179912567E-1
3.709382680E-1,-1.046530753E-1,6.397757530E-1,-1.120527267E0
3.788118030E-1,-1.627062261E-1,4.889359474E-1,-1.320394039E0
3.867463740E-1,-2.224730551E-1,3.874764442E-1,-1.382710934E0
3.945893910E-1,-4.041016102E-1,3.227372169E-1,-1.241958618E0
4.024934440E-1,-2.916530669E-1,3.072776794E-1,-1.001037598E0
4.104585320E-1,-4.751855135E-2,2.442812920E-1,-7.088847160E-1
4.183320670E-1,9.846691787E-2,1.054315567E-1,-3.924655914E-1
4.262056020E-1,2.470399290E-1,5.504751205E-2,-4.007439613E-1
4.340791370E-1,1.243207902E-1,2.159786224E-2,-4.419007301E-1
4.419526720E-1,1.234723628E-1,-4.240846634E-2,-4.085249901E-1
4.499177600E-1,2.138911784E-1,2.766084671E-2,-4.533848763E-1
4.577912950E-1,3.086478710E-1,6.413936615E-2,-4.086813927E-1
4.657869010E-1,3.433578610E-1,9.649324417E-2,-2.660446167E-1
4.736909540E-1,2.936449647E-1,1.146717072E-1,3.237915039E-2
4.815950060E-1,2.049330175E-1,2.003278732E-1,3.419008255E-1
4.895600940E-1,1.970160306E-1,2.274651527E-1,2.156944275E-1
4.974641470E-1,1.640498042E-1,1.820230484E-1,-1.333694458E-1
5.053987170E-1,1.619724482E-1,1.233625412E-1,-3.927793503E-1
5.133027700E-1,2.866759598E-1,7.359504700E-3,-5.489516258E-1
5.211763050E-1,5.416415334E-1,-2.444696426E-2,-4.392747879E-1
5.291413930E-1,8.321688175E-1,-3.721237183E-2,-3.196744919E-1
5.370149280E-1,9.052411914E-1,-1.889824867E-1,-3.038597107E-1
5.449800160E-1,7.119965553E-1,-2.553124428E-1,-2.667121887E-1
5.528535510E-1,5.132777691E-1,-2.840428352E-1,-2.858657837E-1
5.606965690E-1,3.193475008E-1,-2.361588478E-1,-7.038784027E-2
5.686616570E-1,1.804838181E-1,-1.499676704E-1,-7.757091522E-2
5.765351920E-1,2.163968086E-1,-2.050342560E-1,-6.320571899E-2
5.844697620E-1,3.269381523E-1,-3.532514572E-1,1.670923233E-1
5.923738150E-1,4.814199209E-1,-4.456415176E-1,2.810258865E-1
6.002473500E-1,5.192267895E-1,-4.919652939E-1,3.122282028E-1
6.081819200E-1,4.732195139E-1,-5.172424316E-1,3.293819427E-1
6.160859730E-1,4.007407427E-1,-4.782586098E-1,3.204545975E-1
6.239595080E-1,2.702338696E-1,-4.107341766E-1,3.021173477E-1
6.318330440E-1,1.109275222E-1,-3.465151787E-1,2.149095535E-1
6.397370960E-1,-1.152098179E-2,-1.833448410E-1,-4.985713959E-2
6.477021840E-1,-1.289856434E-2,-1.259303093E-1,-1.860771179E-1
6.555757190E-1,3.293061256E-2,-1.525616646E-1,-1.506509781E-1
6.636018420E-1,4.649770260E-2,-1.822280884E-1,-1.865787506E-1
6.715058950E-1,9.784221649E-3,-9.896230698E-2,-4.081602097E-1
6.793794300E-1,5.112224817E-2,-5.466079712E-2,-4.559421539E-1
6.873140010E-1,1.252633333E-2,-2.618217468E-2,-3.930978775E-1
6.951875360E-1,-3.789263964E-2,-3.194713593E-2,-2.057828903E-1
7.031221060E-1,-2.091803551E-1,1.085214615E-1,-1.829452515E-1
7.110261590E-1,-3.556359410E-1,1.794023514E-1,-3.567066193E-1
7.188996940E-1,-4.286401570E-1,1.771945953E-1,-1.577854156E-1
7.268342640E-1,-4.993245006E-1,1.229896545E-1,-1.592292786E-1
7.347077990E-1,-4.986521006E-1,1.067261696E-1,-4.145641327E-1
7.427034050E-1,-5.941642523E-1,2.039909363E-3,-5.551795959E-1
7.506074580E-1,-6.864140630E-1,-7.783365250E-2,-5.524687767E-1
7.584809930E-1,-6.940658689E-1,-4.571342468E-2,-4.978132248E-1
7.664460810E-1,-5.867343545E-1,2.165079117E-2,-2.211170197E-1
7.743501330E-1,-7.778375745E-1,1.333026886E-1,-3.733711243E-1
7.822847040E-1,-6.048576236E-1,1.789188385E-1,-8.480219841E-1
7.901887560E-1,-2.922529876E-1,8.196210861E-2,-5.501179695E-1
7.980622920E-1,-2.509526312E-1,-5.174446106E-2,-1.019420624E-1
8.059968620E-1,-2.002750635E-1,-8.564567566E-2,-8.316135406E-2
8.138703970E-1,-1.175223589E-1,-5.762434006E-2,-1.813983917E-1
8.217744500E-1,-1.671242714E-2,-5.357837677E-2,-2.256164551E-1
8.296479850E-1,6.643378735E-2,-7.166433334E-2,-2.491455078E-1
8.375825550E-1,7.522031665E-2,-8.381128311E-2,-2.110137939E-1
8.455476430E-1,5.597481132E-2,-5.710601807E-2,-1.611757278E-1
8.534211780E-1,4.760080576E-2,1.104068756E-2,-2.563600540E-1
8.613557490E-1,2.852192521E-2,9.867572784E-2,-2.114181519E-1
8.692598010E-1,-1.162424684E-2,1.377987862E-1,-4.879474640E-2
8.771333360E-1,7.922396064E-3,1.836304665E-1,1.025905609E-1
8.850679070E-1,-1.310423911E-1,2.596626282E-1,1.874456406E-1
8.929719600E-1,-3.061890006E-1,2.726101875E-1,1.315574646E-1
9.009370470E-1,-4.184392095E-1,2.556748390E-1,1.027450562E-1
9.088105830E-1,-4.119482636E-1,2.655425072E-1,-6.136226654E-2
9.167146350E-1,-3.958184123E-1,2.663850784E-1,-2.291526794E-1
9.246492060E-1,-4.059113264E-1,2.012610435E-1,-1.830663681E-1
9.325227410E-1,-4.156427979E-1,1.666707993E-1,-1.318368912E-1
9.404573110E-1,-3.477477431E-1,1.173858643E-1,-2.097043991E-1
9.483613640E-1,-1.627204865E-1,5.944108963E-2,-4.629135132E-2
9.562348990E-1,-3.336311877E-2,2.380847931E-3,9.027671814E-2
9.641694690E-1,-2.829203010E-2,-2.813386917E-2,1.213808060E-1
9.720430040E-1,-7.287143916E-2,-6.120014191E-2,8.925437927E-3
9.799775750E-1,-1.003342867E-1,-5.086565018E-2,-1.037082672E-1
9.878511100E-1,-1.296604425E-1,-4.729413986E-2,-7.293987274E-2
9.957551630E-1,-1.726119518E-1,-1.741933823E-2,-3.257369995E-2
1.003720251E0,-2.468127608E-1,-7.271766663E-3,-1.618347168E-1
1.011593786E0,-2.263151854E-1,-3.084182739E-2,-1.856031418E-1
1.019467321E0,-2.236930281E-1,-3.770923615E-2,-2.141036987E-1
1.027371374E0,-2.261629850E-1,-1.327419281E-2,-2.091789246E-1
1.035244909E0,-2.027715892E-1,1.077890396E-2,-1.920385361E-1
1.043209997E0,-1.534195393E-1,3.937196732E-2,-2.657155991E-1
1.051114049E0,-9.765206277E-2,4.410791397E-2,-2.819681168E-1
1.059048620E0,-3.975720704E-2,2.241230011E-2,-4.681415558E-1
1.066952672E0,-8.074875921E-3,-1.080083847E-2,-7.024693489E-1
1.074826208E0,1.753494143E-5,-9.286308289E-2,-6.719098091E-1
1.082791295E0,2.755677328E-2,-1.109447479E-1,-5.442419052E-1
1.090756383E0,-9.197745472E-3,-7.060956955E-2,-4.363083839E-1
1.098690954E0,-9.931610897E-3,-4.159355164E-2,-2.904615402E-1
1.106564489E0,-2.426058054E-3,6.798267365E-3,-1.902389526E-1
1.114438024E0,-5.147723854E-2,2.650308609E-2,-8.045864105E-2
1.122403112E0,-1.417305619E-1,4.321956635E-2,-9.241199493E-2
1.130307165E0,-1.362008303E-1,6.216001511E-2,-9.467792511E-2
1.138272253E0,-7.444018126E-2,7.168340683E-2,7.055473328E-2
1.146176305E0,1.824753173E-2,4.488754272E-2,-3.211402893E-2
1.154049840E0,5.730623379E-2,4.136466980E-2,-3.067588806E-1
1.161984411E0,1.001815721E-1,1.664447784E-2,-3.230428696E-1
1.169857946E0,1.990519166E-1,6.850242615E-3,-2.343215942E-1
1.177823034E0,1.396525800E-1,1.184749603E-2,-1.410703659E-1
1.185727086E0,1.271896958E-1,3.909111023E-2,5.470848083E-2
1.193631139E0,1.681210548E-1,8.253049850E-2,1.407003403E-1
1.201565710E0,8.897585422E-2,1.033606529E-1,1.507225037E-1
1.209439245E0,-4.906402901E-3,8.466482162E-2,5.853271484E-2
1.217312780E0,-3.255889192E-2,1.006588936E-1,-2.675437927E-1
1.225186315E0,-1.790463738E-2,1.116609573E-2,-2.104625702E-1
1.233059850E0,3.151500970E-2,-6.838464737E-2,-9.852790833E-2
1.240994420E0,-1.152019948E-3,9.302616119E-3,-4.386157990E-1
1.248867956E0,7.518186420E-2,-3.419876099E-3,-4.701957703E-1
1.256802526E0,9.038016945E-2,-4.827451706E-2,-2.775669098E-1
1.264737096E0,8.010697365E-2,-2.826309204E-2,-2.646303177E-1
1.272641149E0,1.772162318E-1,-3.520011902E-3,-2.827777863E-1
1.280606237E0,1.758428812E-1,6.102466583E-2,-2.884082794E-1
1.288479772E0,1.431008875E-1,2.276611328E-2,-1.504726410E-1
1.296414342E0,2.132763416E-1,6.602668762E-2,-1.275281906E-1
1.304348913E0,2.536229491E-1,9.949207306E-2,-1.044530869E-1
1.312283483E0,6.200930104E-2,9.750604630E-2,2.080345154E-1
1.320218053E0,1.441080868E-1,1.520214081E-1,2.481880188E-1
1.328091588E0,2.729092538E-1,1.383585930E-1,9.271621704E-2
1.335965124E0,1.804955304E-1,9.198188782E-3,2.129268646E-1
1.343838659E0,8.107728511E-2,-2.728462219E-2,1.013326645E-1
1.351742711E0,-1.545227319E-2,4.053831100E-2,-2.681894302E-1
1.359738317E0,1.392180622E-1,5.119323730E-3,-5.728783607E-1
1.367642370E0,1.700320840E-1,-1.566901207E-1,-6.576108932E-1
1.375607458E0,2.105387151E-1,-2.309417725E-1,-6.450281143E-1
1.383480993E0,2.912158370E-1,-1.962199211E-1,-6.571502686E-1
1.391385045E0,3.115066886E-1,-1.383471489E-1,-4.380297661E-1
1.399350133E0,2.701649070E-1,-3.475952148E-2,-4.249553680E-1
1.407223669E0,2.336258739E-1,1.899814606E-2,-2.804803848E-1
1.415158239E0,1.896276176E-1,2.975988388E-2,-2.198600769E-1
1.423031774E0,2.356926799E-1,7.385683060E-2,-2.213678360E-1
1.430905309E0,2.160473466E-1,8.208084106E-2,-1.750040054E-1
1.438839879E0,1.836532056E-1,1.216373444E-1,-1.623535156E-2
1.446743932E0,2.459682077E-1,1.441164017E-1,2.303695679E-2
1.454709020E0,2.456572354E-1,1.398105621E-1,7.217216492E-2
1.462643590E0,2.072248459E-1,9.436702728E-2,9.524726868E-2
1.470578161E0,1.998500824E-1,6.008958817E-2,3.264045715E-2
1.478573766E0,2.115838379E-1,1.825428009E-2,-8.718585968E-2
1.486447301E0,1.973591447E-1,-2.385807037E-2,-1.709241867E-1
1.494381872E0,1.361000836E-1,-5.378293991E-2,-2.428359985E-1
1.502255407E0,1.306372881E-1,-6.939792633E-2,-3.482370377E-1
1.510128942E0,8.733765781E-2,-1.013593674E-1,-3.389811516E-1
1.518124547E0,1.131674498E-1,-1.304936409E-1,-3.539323807E-1
1.525998083E0,1.389040351E-1,-1.617302895E-1,-4.384975433E-1
1.533963170E0,1.903274059E-1,-1.896777153E-1,-3.512315750E-1
1.541836706E0,1.959544718E-1,-2.000718117E-1,-2.836151123E-1
1.549710241E0,1.801587641E-1,-1.741280556E-1,-3.000636101E-1
1.557644811E0,1.689891517E-1,-1.619286537E-1,-2.809858322E-1
1.565579381E0,1.459721625E-1,-1.392221451E-1,-1.954593658E-1
1.573544469E0,9.263342619E-2,-8.451890945E-2,-1.033143997E-1
1.581448522E0,5.775719881E-2,-5.603027344E-2,-2.028093338E-1
1.589291540E0,8.633716404E-2,-4.181766510E-2,-1.659135818E-1
1.597256628E0,6.563019753E-2,-3.728199005E-2,-1.577024460E-1
1.605160680E0,2.197766304E-2,-2.569961548E-2,-1.949119568E-1
1.613156286E0,-2.610336244E-2,-1.213979721E-2,-2.222871780E-1
1.621060338E0,-5.808729678E-2,4.442787170E-2,-2.448081970E-1
1.628933874E0,-2.562675625E-2,6.925201416E-2,-3.148179054E-1
1.636868444E0,-4.609364271E-2,4.115867615E-2,-3.535437584E-1
1.644772497E0,4.040822387E-2,-3.473758698E-3,-3.708477020E-1
1.652646032E0,6.211838126E-2,-7.070064545E-3,-3.428697586E-1
1.660519567E0,7.899440825E-2,-1.748704910E-2,-2.720232010E-1
1.668454137E0,8.436053991E-2,-2.523231506E-2,-2.276935577E-1
1.676419225E0,9.029577672E-2,-1.600170135E-2,-1.499900818E-1
1.684292760E0,7.245025039E-2,-2.604913712E-2,-1.943149567E-1
1.692227331E0,8.517843485E-2,-3.368616104E-2,-1.835727692E-1
1.700131383E0,7.832498848E-2,-2.234792709E-2,-2.301731110E-1
1.708004919E0,4.628609121E-2,-2.376985550E-2,-1.972484589E-1
1.715939489E0,2.591280639E-2,1.822090149E-2,-6.396198273E-2
1.723813024E0,3.227189183E-2,7.454061508E-2,-2.483367920E-3
1.731747594E0,1.315100491E-2,1.088366508E-1,-2.691173553E-2
1.739590612E0,2.093493938E-2,9.006929398E-2,-5.616188049E-3
1.747525182E0,-6.086617708E-3,8.385229111E-2,-3.019046783E-2
1.755520788E0,9.910643101E-3,7.227802277E-2,-8.074474335E-2
1.763394323E0,6.587043405E-3,2.917385101E-2,-1.214637756E-1
1.771389928E0,4.347060621E-2,-4.302215576E-2,-1.978635788E-1
1.779293981E0,8.484481275E-2,-8.159399033E-2,-1.929197311E-1
1.787136999E0,1.040269136E-1,-1.127052307E-1,-2.216596603E-1
1.795132604E0,1.014089137E-1,-1.103615761E-1,-2.886610031E-1
1.803036657E0,4.591281712E-2,-8.824682236E-2,-2.914037704E-1
1.810971227E0,2.588334680E-2,-5.377864838E-2,-2.656469345E-1
1.818844762E0,7.058313489E-2,-4.991197586E-2,-1.947298050E-1
1.826748815E0,8.177767694E-2,-4.136466980E-2,-1.740226746E-1
1.834744420E0,9.599325061E-2,-5.897331238E-2,-1.462564468E-1
1.842648473E0,1.132102013E-1,-8.373594284E-2,-1.161212921E-1
1.850644079E0,1.094357967E-1,-1.132464409E-1,-1.650304794E-1
1.858548131E0,1.296599060E-1,-1.285080910E-1,-1.540117264E-1
1.866421667E0,1.715522110E-1,-1.199207306E-1,-4.238033295E-2
1.874356237E0,1.492882073E-1,-1.403245926E-1,-1.939554214E-1
1.882290807E0,3.428426385E-2,-7.209396362E-2,-1.588220596E-1
1.890164342E0,3.385828435E-2,-1.332759857E-2,-1.644544601E-1
1.898068395E0,4.213650525E-2,1.423692703E-2,-5.749797821E-2
1.905941930E0,1.213672012E-2,3.200864792E-2,-3.899192810E-2
1.913876501E0,1.550056785E-2,4.957485199E-2,-6.584453583E-2
1.921750036E0,2.074021846E-2,6.131696701E-2,-7.767963409E-2
1.929684606E0,-7.079727948E-3,5.325222015E-2,-1.633358002E-1
1.937588659E0,-3.381609917E-3,2.832841873E-2,-1.579532623E-1
1.945492711E0,-1.778817177E-2,-2.714109421E-2,-1.194295883E-1
1.953457799E0,-3.619023412E-2,-6.121015549E-2,-1.239194870E-1
1.961331335E0,-6.041968986E-2,-8.344078064E-2,-1.762275696E-1
1.969204870E0,-4.368782789E-2,-1.317462921E-1,-2.670059204E-1
1.977139440E0,-2.269837260E-2,-1.629724503E-1,-2.143230438E-1
1.985012975E0,-5.269925296E-2,-1.699976921E-1,-2.551641464E-1
1.992947545E0,-8.858188242E-2,-1.600251198E-1,-2.602281570E-1
2.000821081E0,-6.323102117E-2,-1.305975914E-1,-3.181390762E-1
2.008786169E0,-2.700103819E-2,-1.007604599E-1,-3.930521011E-1
2.016690221E0,-4.636968672E-2,-1.013207436E-1,-3.463087082E-1
2.024563756E0,-2.524425834E-2,-9.181785583E-2,-3.621139526E-1
2.032498327E0,2.446604520E-2,-6.013107300E-2,-3.328223228E-1
2.040402379E0,2.123801410E-2,-5.913162231E-2,-2.535200119E-1
2.048336950E0,7.822444290E-2,-7.007789612E-2,-1.359272003E-1
2.056241003E0,1.098143384E-1,-5.210256577E-2,-1.367473602E-2
2.064114538E0,9.010434151E-2,-3.696060181E-2,5.855941772E-2
2.072049108E0,6.464066356E-2,-3.259181976E-3,3.298473358E-2
2.079922643E0,-2.969736233E-2,1.328468323E-3,-1.150989532E-2
2.087887731E0,-5.045059696E-2,-1.590681076E-2,1.839447021E-2
2.095761266E0,-6.200652197E-2,-1.185274124E-2,1.255130768E-2
2.103726354E0,-1.126809120E-1,-1.749849319E-2,-2.782821655E-3
2.111691442E0,-1.019290760E-1,-1.404666901E-2,-7.766723633E-2
2.119595495E0,-6.342077255E-2,-3.232908249E-2,-6.863117218E-2
2.127530065E0,-1.306384802E-2,-6.754159927E-2,5.156517029E-3
2.135403600E0,3.065788001E-2,-6.953334808E-2,-4.776954651E-2
2.143338170E0,7.549539208E-3,-9.362125397E-2,-1.075429916E-1
2.151333776E0,-2.002733201E-2,-8.176374435E-2,-1.457910538E-1
2.159237829E0,-1.414849609E-2,-3.615045547E-2,-1.530580521E-1
2.167202917E0,8.379779756E-3,-3.597879410E-2,-1.914806366E-1
2.175106969E0,4.164353013E-3,-6.686019897E-2,-1.724824905E-1
2.183011022E0,2.381729335E-2,-8.073806763E-2,-1.584224701E-1
2.191006628E0,4.804156721E-2,-8.728408813E-2,-1.396646500E-1
2.198910680E0,2.938705683E-2,-7.955932617E-2,-1.208496094E-1
2.206814733E0,3.716587275E-2,-5.750989914E-2,-1.786241531E-1
2.214657751E0,6.458163261E-3,-4.030084610E-2,-1.884832382E-1
2.222592321E0,-1.940568909E-2,-3.973579407E-2,-1.601047516E-1
2.230557409E0,-3.828910738E-2,-4.144048691E-2,-1.557435989E-1
2.238430944E0,-4.090987891E-2,-2.651596069E-2,-1.201744080E-1
2.246365514E0,-1.036722213E-2,-1.150608063E-2,-8.944225311E-2
2.254239049E0,1.477301121E-3,-1.122617722E-2,-6.567192078E-2
2.262143102E0,-3.191723675E-2,-3.754711151E-2,-6.089401245E-2
2.270077672E0,-2.866042033E-2,-3.309774399E-2,-1.133642197E-1
2.277981725E0,-1.083754376E-2,-3.126859665E-2,-1.800622940E-1
2.285885778E0,-1.195895672E-2,-5.808353424E-2,-1.917495728E-1
2.293789831E0,-6.013125181E-3,-9.898948669E-2,-1.533241272E-1
2.301663366E0,-9.684801102E-3,-7.517194748E-2,-1.221313477E-1
2.309597936E0,-4.190612584E-2,-6.092214584E-2,-6.221675873E-2
2.317471471E0,-5.748181045E-2,-6.126403809E-2,-5.722522736E-2
2.325406042E0,-9.015585482E-2,-5.701923370E-2,-3.534793854E-2
2.333279577E0,-5.630085617E-2,-4.827976227E-2,-5.638217926E-2
2.341153112E0,-4.028612375E-2,-1.354122162E-2,-4.846858978E-2
2.349087682E0,-6.307217479E-2,-1.039409637E-2,-1.096944809E-1
2.356961217E0,-4.540851340E-2,-7.404804230E-3,-1.181488037E-1
2.364895788E0,1.031257212E-2,-4.042434692E-2,-1.385126114E-1
2.372738805E0,2.581913769E-2,-6.140851974E-2,-1.589174271E-1
2.380642858E0,5.122633278E-2,-4.163217545E-2,-1.219015121E-1
2.388607946E0,2.483341098E-2,-3.587865829E-2,-1.258049011E-1
2.396511999E0,6.490021944E-3,-4.917764664E-2,-1.537199020E-1
2.404416051E0,1.473689824E-2,-7.447290421E-2,-1.840133667E-1
2.412289586E0,2.511668950E-2,-1.019330025E-1,-1.306514740E-1
2.420193639E0,5.036839843E-2,-9.608078003E-2,-3.646373749E-2
2.428189245E0,5.427979678E-2,-5.209064484E-2,5.156517029E-3
2.436062780E0,5.613375455E-2,-4.679155350E-2,-4.157352448E-2
2.444027868E0,5.266776308E-2,-6.067752838E-2,-5.715370178E-2
2.451901403E0,8.414930105E-2,-6.550836563E-2,-6.761360168E-2
2.459805456E0,9.838971496E-2,-7.307052612E-2,-7.307243347E-2
2.467740026E0,1.076573879E-1,-9.541177750E-2,-1.285486221E-1
2.475644079E0,9.990786016E-2,-9.853458405E-2,-1.960315704E-1
2.483487096E0,8.993776143E-2,-7.529211044E-2,-2.659282684E-1
2.491391149E0,8.000525832E-2,-7.782220840E-2,-2.835006714E-1
2.499264684E0,7.747508585E-2,-8.739662170E-2,-3.131332397E-1
2.507199254E0,4.861928523E-2,-8.437347412E-2,-2.928762436E-1
2.515866247E0,1.530884951E-2,-6.901454926E-2,-3.374934196E-1
2.523129430E0,-8.688185364E-3,-3.644895554E-2,-2.722539902E-1
2.531002965E0,7.827915251E-3,-1.299953461E-2,-1.905422211E-1
2.538907018E0,4.355674610E-2,-1.529693604E-3,-6.572914124E-2
2.546872106E0,4.140577465E-2,7.625102997E-3,2.790737152E-2
2.554806676E0,7.310432941E-2,-1.504659653E-2,4.663467407E-3
2.562771764E0,8.584004641E-2,-3.569364548E-2,-6.383991241E-2
2.570614782E0,1.736453921E-2,-4.463291168E-2,-1.106319427E-1
2.578518835E0,1.078610867E-2,-3.473854065E-2,-1.931324005E-1
2.586514440E0,4.415339231E-2,-9.211969376E-2,-2.635087967E-1
2.594449010E0,5.593224242E-2,-1.421132088E-1,-3.100695610E-1
2.602292028E0,6.352181733E-2,-1.987257004E-1,-3.306522369E-1
2.610196081E0,4.532616213E-2,-2.281765938E-1,-2.703514099E-1
2.618069616E0,2.973937616E-2,-2.232513428E-1,-1.938304901E-1
2.626004186E0,3.813099116E-2,-1.819319725E-1,-1.918325424E-1
2.633877721E0,-1.609042287E-3,-1.213674545E-1,-2.186193466E-1
2.641812292E0,-6.164588034E-3,-9.196090698E-2,-2.789011002E-1
2.649685827E0,7.536899298E-3,-5.285024643E-2,-1.979961395E-1
2.657589879E0,1.835537702E-2,1.024055481E-2,-1.123247147E-1
2.665554967E0,1.758359000E-2,4.424715042E-2,-7.910633087E-2
2.673428503E0,2.737374604E-2,2.763319016E-2,-5.286216736E-2
2.681271520E0,7.046937197E-2,1.296997070E-3,-4.978179932E-3
2.689236608E0,1.048551127E-1,-1.845121384E-2,-4.611015320E-3
2.697140661E0,1.009566486E-1,-1.491212845E-2,9.536743164E-4
2.705075231E0,9.939714521E-2,-3.587675095E-2,-2.664756775E-2
2.712948766E0,1.071112156E-1,-4.516220093E-2,-5.885028839E-2
2.720944372E0,9.054426849E-2,-3.545808792E-2,-8.615875244E-2
2.728848424E0,7.120703906E-2,-1.868343353E-2,-1.732492447E-1
2.736813512E0,1.117596403E-1,-1.601314545E-2,-1.527643204E-1
2.744748083E0,9.304515272E-2,-3.709077835E-2,-1.060676575E-1
2.752652135E0,9.400895238E-2,-7.000160217E-2,-6.185436249E-2
2.760617223E0,4.767236486E-2,-8.382463455E-2,-1.181583405E-1
2.768460241E0,1.568118483E-2,-8.072805405E-2,-1.075258255E-1
2.776333776E0,9.250789881E-3,-7.995653152E-2,-8.496189117E-2
2.784268346E0,-1.193140820E-2,-8.906841278E-2,-7.895946503E-2
2.792141881E0,-3.337093815E-2,-1.008944511E-1,-1.469726562E-1
2.800015417E0,-3.591916338E-2,-1.104445457E-1,-1.933622360E-1
2.807919469E0,-4.374576733E-2,-1.055421829E-1,-2.278318405E-1
2.815762487E0,-4.693717882E-2,-9.323310852E-2,-2.432880402E-1
2.823727575E0,-3.562770411E-2,-1.000070572E-1,-2.827301025E-1
2.831601110E0,4.986628890E-3,-1.256275177E-1,-2.409667969E-1
2.839566198E0,2.003719285E-2,-1.124458313E-1,-2.186746597E-1
2.847470251E0,2.560790628E-3,-1.012201309E-1,-2.158184052E-1
2.855343786E0,-1.697305404E-2,-7.774162292E-2,-2.370843887E-1
2.863308874E0,-1.516198553E-2,-6.604003906E-2,-2.034053802E-1
2.871182409E0,2.642053366E-2,-4.007530212E-2,-2.031745911E-1
2.879116979E0,5.759367347E-2,-4.506111145E-2,-2.126264572E-1
2.886990514E0,5.248107761E-2,-6.438064575E-2,-1.526641846E-1
2.894925085E0,7.373107970E-2,-7.155227661E-2,-1.287288666E-1
2.902920690E0,7.587854564E-2,-6.927633286E-2,-9.992122650E-2
2.910824743E0,2.306151018E-2,-4.313945770E-2,-4.951667786E-2
2.918728795E0,5.916515738E-2,-1.485776901E-2,-6.599140167E-2
2.926632848E0,7.874167711E-2,-3.231668472E-2,-8.710002899E-2
2.934506383E0,9.845270216E-2,-6.662750244E-2,-9.378242493E-2
2.942471471E0,1.021109298E-1,-8.426570892E-2,-8.844470978E-2
2.950345006E0,8.216558397E-2,-9.011602402E-2,-1.811532974E-1
2.958310094E0,6.240728498E-2,-9.588956833E-2,-1.733541489E-1
2.966153112E0,5.217421055E-2,-1.039943695E-1,-1.967210770E-1
2.974057165E0,6.555449963E-2,-1.312007904E-1,-2.177219391E-1
2.982022253E0,5.006320402E-2,-1.317787170E-1,-1.814470291E-1
2.989926305E0,5.383833870E-2,-1.035938263E-1,-1.858949661E-1
2.997769323E0,4.804302007E-2,-9.447717667E-2,-2.191267014E-1
3.005673376E0,5.588043854E-2,-1.021471024E-1,-2.092437744E-1
3.013546911E0,5.168050528E-2,-9.079980850E-2,-1.681489944E-1
3.021481481E0,8.323109895E-2,-7.686281204E-2,-1.487255096E-1
3.029355016E0,1.095841900E-1,-5.839014053E-2,-1.195621490E-1
3.037320104E0,8.326273412E-2,-6.176805496E-2,-1.476688385E-1
3.045224157E0,1.023266315E-1,-6.047868729E-2,-1.709079742E-1
3.053097692E0,1.166157797E-1,-8.301115036E-2,-1.870412827E-1
3.061032262E0,1.194720417E-1,-9.106969833E-2,-1.625452042E-1
3.068966833E0,1.134120077E-1,-7.525873184E-2,-1.475801468E-1
3.076931920E0,8.636713028E-2,-8.079671860E-2,-1.686573029E-1
3.084774938E0,6.533779204E-2,-8.386516571E-2,-1.802082062E-1
3.092678991E0,6.309416890E-2,-1.012558937E-1,-1.893901825E-1
3.100674596E0,5.783727020E-2,-9.005880356E-2,-1.817197800E-1
3.108517614E0,7.854227722E-2,-7.894420624E-2,-2.530050278E-1
3.116543737E0,8.691094816E-2,-9.634494781E-2,-3.076653481E-1
3.124447790E0,1.168665364E-1,-1.349411011E-1,-3.026957512E-1
3.132321325E0,1.467136741E-1,-1.467761993E-1,-3.075718880E-1
3.140255895E0,1.752237976E-1,-1.561293602E-1,-3.172917366E-1
3.148129430E0,1.641013920E-1,-1.336030960E-1,-2.748198509E-1
3.156064001E0,1.409569383E-1,-7.957172394E-2,-2.349834442E-1
3.163968053E0,9.139269590E-2,-5.179643631E-2,-1.999864578E-1
3.171841588E0,9.223287553E-2,-7.159233093E-3,-1.291427612E-1
3.179776159E0,7.210122049E-2,-1.059532166E-2,-3.423500061E-2
3.187649694E0,4.795973003E-2,-6.998538971E-3,-6.373119354E-2
3.195523229E0,5.785575882E-2,-3.770208359E-2,-2.100467682E-1
3.203396764E0,7.212810218E-2,-7.314443588E-2,-2.797789574E-1
3.211239782E0,9.828034788E-2,-1.371011734E-1,-3.065509796E-1
3.219204870E0,1.004739851E-1,-1.550831795E-1,-3.623614311E-1
3.227108922E0,1.155119017E-1,-1.563348770E-1,-3.463268280E-1
3.235043493E0,1.161208302E-1,-1.831345558E-1,-2.757253647E-1
3.242917028E0,1.180716753E-1,-1.825265884E-1,-2.393198013E-1
3.250821081E0,1.795853674E-1,-1.742424965E-1,-1.960420609E-1
3.258786169E0,1.878996044E-1,-1.611356735E-1,-1.623620987E-1
3.266659704E0,1.811840236E-1,-9.545278549E-2,-1.501665115E-1
3.274594274E0,1.668408811E-1,-1.813888550E-2,-1.856393814E-1
3.282498327E0,1.618026048E-1,4.929685593E-2,-1.275463104E-1
3.290432897E0,1.260662526E-1,8.996343613E-2,-1.146688461E-1
3.298397985E0,1.022807360E-1,1.012926102E-1,-1.732330322E-1
3.306271520E0,1.163936481E-1,1.344103813E-1,-1.466484070E-1
3.314236608E0,7.502280176E-2,9.936809540E-2,-2.462453842E-1
3.322110143E0,1.887232661E-1,-3.453445435E-2,-2.487487793E-1
3.329983678E0,2.311283648E-1,-3.380107880E-2,-2.444219589E-1
3.337948766E0,1.882840693E-1,-8.982467651E-2,-2.477226257E-1
3.345822301E0,1.690423489E-1,-1.181640625E-1,-2.000846863E-1
3.353817907E0,1.617347300E-1,-1.028070450E-1,-1.504316330E-1
3.361660924E0,1.520969719E-1,-1.204934120E-1,-1.250171661E-1
3.369564977E0,1.113415584E-1,-8.763408661E-2,-9.737682343E-2
3.377530065E0,8.303162456E-2,-8.814716339E-2,-1.536245346E-1
3.385464635E0,5.007649958E-2,-4.773807526E-2,-1.022710800E-1
3.393429723E0,5.958470516E-3,-9.595060349E-2,-1.059627533E-1
3.401272741E0,6.292203069E-2,-8.431577682E-2,-1.383781433E-1
3.409207311E0,5.802103132E-2,-7.502317429E-2,-1.756172180E-1
3.417172399E0,4.168320447E-2,-7.509040833E-2,-2.776327133E-1
3.425045934E0,3.965243325E-2,-6.084775925E-2,-3.413076401E-1
3.433011022E0,9.978424758E-2,-5.596733093E-2,-3.165297508E-1
3.440884557E0,9.158340096E-2,-6.977319717E-2,-3.447170258E-1
3.448758092E0,6.987097114E-2,-8.544254303E-2,-3.133811951E-1
3.456692663E0,6.308649480E-2,-1.175165176E-1,-2.200145721E-1
3.464566198E0,9.258811921E-2,-1.540060043E-1,-1.963100433E-1
3.472500768E0,1.082103476E-1,-1.377415657E-1,-2.277193069E-1
3.480374303E0,8.080255240E-2,-1.641926765E-1,-2.138690948E-1
3.488247838E0,4.384520650E-2,-1.688766479E-1,-1.786031723E-1
3.496212926E0,2.799034305E-2,-1.590428352E-1,-1.913118362E-1
3.504116979E0,2.092442475E-3,-1.539921761E-1,-2.566890717E-1
3.512021032E0,-4.835025966E-2,-1.678676605E-1,-2.384071350E-1
3.519894567E0,-7.021233439E-2,-1.768922806E-1,-2.824087143E-1
3.527768102E0,-1.087183654E-1,-1.832599640E-1,-4.055747986E-1
3.535733190E0,-1.187332720E-1,-1.989135742E-1,-4.882140160E-1
3.544278112E0,-9.468846023E-2,-2.089338303E-1,-4.827790260E-1
3.551602331E0,-8.526194096E-2,-2.267236710E-1,-4.664688110E-1
3.559506383E0,-9.246997535E-2,-2.498936653E-1,-3.492231369E-1
3.567379919E0,-1.220254600E-1,-2.525453568E-1,-2.136373520E-1
3.575314489E0,-1.316402555E-1,-2.120232582E-1,-3.019142151E-2
3.583188024E0,-1.472891420E-1,-1.623859406E-1,-8.825206757E-2
3.591061559E0,-2.958963811E-1,-1.593642235E-1,-3.371362686E-1
3.598935094E0,-3.691363037E-1,-1.751027107E-1,-3.204927444E-1
3.606778112E0,-3.461835980E-1,-1.547627449E-1,-2.081804276E-1
3.614773717E0,-2.690938115E-1,-1.059036255E-1,-1.867151260E-1
3.622616735E0,-2.612858713E-1,-1.009826660E-1,-2.964067459E-1
3.630581823E0,-2.746059895E-1,-9.895277023E-2,-3.650827408E-1
3.638424840E0,-3.280340433E-1,-7.557773590E-2,-3.641862869E-1
3.646298376E0,-3.587318957E-1,2.125263214E-3,-4.681658745E-1
3.654202428E0,-3.318946064E-1,-3.315114975E-2,-5.455265045E-1
3.662075963E0,-3.073669076E-1,-6.573486328E-2,-6.062908173E-1
3.669980016E0,-3.400307000E-1,-6.907653809E-2,-6.146726608E-1
3.677853551E0,-3.677327037E-1,-4.277467728E-2,-4.990816116E-1
3.685788122E0,-3.888445795E-1,5.102968216E-2,-3.717470169E-1
3.693783727E0,-4.369101822E-1,1.330018044E-1,-2.803525925E-1
3.701687780E0,-4.569901526E-1,2.028818130E-1,-1.864318848E-1
3.709652868E0,-4.961591363E-1,2.768521309E-1,-7.046413422E-2
3.717526403E0,-4.948276877E-1,3.594093323E-1,2.462959290E-2
3.725430456E0,-4.697237611E-1,4.156317711E-1,-5.593585968E-2
3.733395544E0,-3.866219819E-1,3.887977600E-1,5.795478821E-3
3.741299596E0,-2.584948838E-1,3.963379860E-1,-8.146286011E-3
3.749264684E0,-2.356859744E-1,4.187269211E-1,-1.789312363E-1
3.757168737E0,-2.755379379E-1,4.044089317E-1,-2.558403015E-1
3.765072790E0,-2.710041702E-1,4.112181664E-1,-2.774295807E-1
3.773037878E0,-2.633754909E-1,4.780130386E-1,-2.009601593E-1
3.780911413E0,-2.360602915E-1,5.354428291E-1,-1.079006195E-1
3.788815465E0,-1.882038414E-1,5.904345512E-1,3.305435181E-2
3.796689001E0,-1.480255127E-1,5.875248909E-1,1.625347137E-2
3.804532018E0,-1.038612723E-1,5.217595100E-1,-8.160495758E-2
3.812497106E0,1.023572683E-2,4.387588501E-1,-2.602577209E-2
3.820370641E0,8.488842845E-2,4.153342247E-1,-8.763599396E-2
3.828335729E0,3.698554635E-2,4.052500725E-1,-1.342821121E-1
3.836209264E0,3.882023692E-2,3.396620750E-1,-1.806783676E-1
3.844082799E0,4.749095440E-2,2.684545517E-1,-2.409496307E-1
3.852017370E0,5.129122734E-2,1.437854767E-1,-3.893232346E-1
3.859921422E0,2.365630865E-2,-3.090858459E-3,-5.492711067E-1
3.867886510E0,6.447976828E-2,-1.107883453E-1,-6.259827614E-1
3.875790563E0,4.004031420E-2,-1.871423721E-1,-6.276698112E-1
3.883694616E0,4.619708657E-2,-2.232379913E-1,-6.784367561E-1
3.891659704E0,-8.405289054E-2,-1.697549820E-1,-9.404802322E-1
3.899533239E0,-1.619498134E-1,-1.101059914E-1,-9.902825356E-1
3.907437292E0,-1.852181554E-1,-1.741123199E-2,-8.353605270E-1
3.915310827E0,-2.774790525E-1,1.097702980E-1,-7.264800072E-1
3.923214879E0,-3.247323036E-1,1.170477867E-1,-6.390542984E-1
3.931210485E0,-3.566527963E-1,2.010183334E-1,-5.252752304E-1
3.939114538E0,-4.113929868E-1,2.918577194E-1,-3.370103836E-1
3.947079626E0,-4.336538911E-1,3.790574074E-1,-2.436733246E-1
3.954953161E0,-3.575060964E-1,3.810238838E-1,-2.523994446E-1
3.962857213E0,-2.316781282E-1,3.576321602E-1,-2.459411621E-1
3.970791784E0,-1.832503080E-2,2.473802567E-1,-1.673173904E-1
3.978695836E0,1.106097996E-1,1.730537415E-1,3.815650940E-2
3.986569372E0,2.200993896E-1,1.550698280E-1,8.201599121E-5
3.994442907E0,2.618688047E-1,1.630139351E-1,1.009559631E-2
4.002285924E0,2.549340427E-1,1.788592339E-1,-2.253646851E-1
4.010251012E0,1.781894565E-1,1.968789101E-1,-6.242876053E-1
4.018124547E0,-5.592864752E-2,1.553306580E-1,-6.809434891E-1
4.026089635E0,-1.508212686E-1,3.723568916E-1,-6.178398132E-1
4.033993688E0,-2.579935193E-1,3.979330063E-1,-5.739412308E-1
4.041897741E0,-3.261169791E-1,4.083566666E-1,-5.607895851E-1
4.049862829E0,-3.220810890E-1,5.159859657E-1,-3.580517769E-1
4.057766881E0,-1.788391471E-1,5.145683289E-1,-4.611077309E-1
4.065731969E0,-1.257808805E-1,5.026769638E-1,-5.589270592E-1
4.073605504E0,-9.090608358E-2,3.858666420E-1,-5.900588036E-1
4.081479040E0,8.113533258E-2,2.836065292E-1,-5.567760468E-1
4.089413610E0,2.303262353E-1,1.675133705E-1,-2.916669846E-1
4.097287145E0,3.045414984E-1,7.347869873E-2,-4.588031769E-2
4.105130163E0,3.723044097E-1,9.839057922E-2,-2.879590988E-1
4.113034215E0,3.851244748E-1,1.725358963E-1,-2.013473511E-1
4.120907751E0,3.021253943E-1,2.050337791E-1,-2.170715332E-1
4.128842321E0,1.543653607E-1,2.126665115E-1,-3.183846474E-1
4.136837926E0,1.700801849E-1,2.652196884E-1,-4.314126968E-1
4.144772497E0,2.968111634E-1,3.004879951E-1,-3.576340675E-1
4.152676549E0,3.689294755E-1,2.604641914E-1,-3.864197731E-1
4.160550085E0,2.792997658E-1,2.758960724E-1,-3.183856010E-1
4.168484655E0,2.673899829E-1,2.942605019E-1,-2.036876678E-1
4.176358190E0,2.517894804E-1,3.790378571E-1,2.826890945E-1
4.184231725E0,1.645467281E-1,6.169080734E-1,1.091434479E0
4.192135778E0,2.062030733E-1,8.222756386E-1,1.164400101E0
4.199978795E0,3.202859759E-1,8.577098846E-1,7.944135666E-1
4.207943883E0,7.240551710E-2,3.945541382E-1,5.896654129E-1
4.215878454E0,8.485215902E-1,6.154861450E-1,4.912214279E-1
4.223843542E0,7.347714901E-1,4.075298309E-1,-1.687402725E-1
4.231778112E0,3.720178008E-1,2.348198891E-1,-5.229802132E-1
4.239682165E0,3.428206146E-1,5.027861595E-1,-7.042913437E-1
4.247647253E0,-7.208222151E-2,8.065958023E-1,-4.612812996E-1
4.255520788E0,-1.592051387E-1,9.202747345E-1,1.827049255E-1
4.263455358E0,-2.351107597E-1,1.067535400E0,6.663122177E-1
4.271328893E0,-9.973228574E-1,4.651966095E-1,6.539845467E-1
4.279202428E0,-4.935593605E-1,6.874203682E-1,3.689813614E-1
4.287167516E0,-1.089224339E0,2.526473999E-1,5.195446014E-1
4.295102086E0,-8.608523011E-1,4.392719269E-1,-2.015171051E-1
4.302975622E0,-6.381880045E-1,8.712520599E-1,-1.668133736E0
4.310879674E0,-7.635553479E-1,8.210110664E-1,-2.941089153E0
4.318722692E0,-4.424421787E-1,9.356861115E-1,-1.409693241E0
4.326687780E0,2.735981345E-1,8.839726448E-1,9.522290230E-1
4.334622350E0,7.924546003E-1,9.782357216E-1,1.622818470E0
4.342556920E0,4.775739312E-1,1.107334614E0,1.807268620E0
4.350430456E0,2.054610550E-1,1.136728764E0,9.908723831E-1
4.358303991E0,-2.515040040E-1,9.818868637E-1,-5.485725403E-2
4.366238561E0,-5.685512424E-1,8.448543549E-1,-7.801036835E-1
4.374112096E0,-5.334519148E-1,7.524585724E-1,-9.894781113E-1
4.381955114E0,-3.709644377E-1,6.428527832E-1,-8.071064949E-1
4.389859167E0,-3.088772893E-1,5.887231827E-1,-4.303417206E-1
4.397732702E0,-2.573508024E-1,4.530873299E-1,-2.631549835E-1
4.405667272E0,4.927530885E-3,5.335469246E-1,8.659887314E-2
4.413540807E0,-1.437422037E-1,4.891419411E-1,6.917357445E-1
4.421475378E0,-1.634609699E-1,4.415092468E-1,8.369359970E-1
4.429348913E0,-2.062073946E-1,4.470014572E-1,8.103599548E-1
4.437222448E0,-1.169981211E-1,4.579973221E-1,1.116397381E0
4.445218053E0,-1.360734105E-1,2.341532707E-1,9.584360123E-1
4.453122106E0,-5.981186032E-2,1.925468445E-2,6.048784256E-1
4.461087194E0,2.008951455E-2,-2.101840973E-1,3.258566856E-1
4.468960729E0,-7.698050886E-2,-6.127462387E-1,7.446050644E-2
4.476834264E0,5.339049101E-1,-7.545671463E-1,7.740492821E-1
4.484799352E0,6.109116673E-1,-9.865303040E-1,1.249855042E0
4.492672887E0,5.560633540E-1,-1.101962090E0,1.110830784E0
4.500637975E0,6.396672726E-1,-1.144627094E0,7.358298302E-1
4.508511510E0,7.358412743E-1,-1.091551304E0,3.585114479E-1
4.516385045E0,5.669857264E-1,-9.367313385E-1,4.664678574E-1
4.524319616E0,2.367062569E-1,-8.919177055E-1,9.676337242E-1
4.532223669E0,1.884695292E-1,-8.455357552E-1,1.455683231E0
4.540188756E0,1.626403630E-1,-8.054723740E-1,1.257673264E0
4.548031774E0,7.239064574E-2,-7.709279060E-1,7.627363205E-1
4.556057897E0,9.874340892E-2,-8.421797752E-1,2.317690849E-1
4.563992467E0,1.217438281E-1,-9.726638794E-1,-3.037643433E-2
4.571866003E0,3.159202039E-1,-1.076754093E0,5.810356140E-2
4.579709020E0,3.909558654E-1,-1.009118557E0,8.320140839E-2
4.587582555E0,5.334237814E-1,-9.274568558E-1,-2.744007111E-2
4.595456090E0,5.562775135E-1,-9.463453293E-1,-9.474945068E-2
4.603390661E0,3.165561557E-1,-8.805556297E-1,-3.287725449E-1
4.611264196E0,1.226627231E-1,-7.939310074E-1,-6.419177055E-1
4.619259801E0,1.224523783E-1,-7.270445824E-1,-7.009944916E-1
4.627133336E0,-1.524478197E-2,-6.006684303E-1,-1.109471321E0
4.635006872E0,-1.326842904E-1,-4.586353302E-1,-1.758082867E0
4.642971960E0,-1.572745442E-1,-3.381199837E-1,-2.265919209E0
4.650876012E0,1.516222954E-2,-3.279070854E-1,-1.963603497E0
4.658841100E0,2.640571594E-1,-3.762402534E-1,-1.992915154E0
4.666684118E0,7.053279877E-1,-3.471941948E-1,-1.566009521E0
4.674588170E0,8.551435471E-1,-2.858805656E-1,-1.432006836E0
4.682522741E0,6.822915077E-1,-2.167677879E-1,-1.353656292E0
4.690365758E0,4.735581875E-1,-2.064447403E-1,-9.550004005E-1
4.698361364E0,3.429907560E-1,-1.027574539E-1,-1.392679214E-1
4.706265417E0,4.147448540E-1,1.044564247E-1,2.616901398E-1
4.714138952E0,3.991466761E-1,2.428965569E-1,4.672660828E-1
4.722073522E0,2.995073795E-1,4.406805038E-1,1.828813553E-1
4.729947057E0,6.535923481E-2,5.267539024E-1,-3.312330246E-1
4.737881628E0,3.611457348E-2,7.113289833E-1,-4.924573898E-1
4.745785680E0,1.333730221E-1,7.669858932E-1,-7.055125237E-1
4.753689733E0,1.669594049E-1,6.565971375E-1,-1.170454502E0
4.761654821E0,2.608034611E-1,5.674819946E-1,-1.721741199E0
4.769528356E0,1.981294155E-1,4.329185486E-1,-1.949120522E0
4.777371374E0,2.481225729E-1,4.283676147E-1,-1.865042686E0
4.785275426E0,2.689816952E-1,4.483127594E-1,-8.351716995E-1
4.793148961E0,2.762448788E-1,5.118770599E-1,-2.473134995E-1
4.801083532E0,6.241047382E-2,6.298933029E-1,-9.586429596E-2
4.808957067E0,-1.608662605E-1,7.517619133E-1,-3.719043732E-2
4.816891637E0,-9.858673811E-2,8.204264641E-1,-2.903995514E-1
4.824765172E0,4.295819998E-2,6.280994415E-1,-5.226564407E-1
4.832669225E0,2.435792089E-1,4.827094078E-1,-8.830313683E-1
4.840634313E0,4.275628924E-1,4.902935028E-1,-1.170584679E0
4.848538366E0,3.035275936E-1,4.474449158E-1,-1.626324654E0
4.856411901E0,2.981891036E-1,4.557967186E-1,-2.192495346E0
4.864346471E0,5.586354136E-1,6.141386032E-1,-2.300967693E0
4.872250524E0,4.275952578E-1,5.591192245E-1,-1.613096237E0
4.880185094E0,3.132110238E-1,6.552300453E-1,-1.854226589E0
4.888058629E0,4.365041852E-1,8.562865257E-1,-1.941096783E0
4.895993200E0,2.184738517E-1,9.022049904E-1,-1.361858845E0
4.903866735E0,6.828951836E-2,1.093975544E0,-1.160253048E0
4.911740270E0,1.218159199E-1,1.335347176E0,-6.805477142E-1
4.919674840E0,1.017051935E-2,1.613000870E0,1.757736206E-1
4.927548376E0,-1.553668380E-1,1.894151211E0,4.399604797E-1
4.935482946E0,-8.646643162E-2,2.076870918E0,7.991504669E-2
4.943356481E0,3.231135607E-1,2.040484428E0,-1.965055466E-1
4.951230016E0,1.234317780E0,1.524303436E0,3.037777901E0
4.959164586E0,2.621752024E-1,1.140805721E0,-3.093309402E-1
4.967038122E0,2.247642875E-1,1.462287426E0,-8.874044418E-1
4.975003210E0,3.064023256E-1,1.542945862E0,-2.499291420E0
4.982907262E0,4.068589807E-1,1.457751751E0,-2.389629364E0
4.990780797E0,4.945122600E-1,1.644059658E0,-2.058586121E0
4.998745885E0,5.056120753E-1,1.962384701E0,-1.274573326E0
5.006619420E0,4.003188610E-1,2.225634575E0,-5.149407387E-1
5.014553991E0,3.743860722E-1,2.427448273E0,5.826377869E-2
5.022458044E0,4.285458922E-1,2.629916668E0,1.231250763E-1
5.030331579E0,2.031447291E-1,2.714619637E0,3.714809418E-1
5.038266149E0,-9.252679348E-2,2.746390820E0,7.862930298E-1
5.046170202E0,-3.446784019E-1,2.830490112E0,1.302185059E0
5.054043737E0,-6.337155104E-1,2.959652424E0,1.832062721E0
5.061947790E0,-9.715329409E-1,2.943251133E0,1.919480324E0
5.069821325E0,-1.255747795E0,2.546965122E0,1.571540833E0
5.077786413E0,-5.780103803E-1,2.312262535E0,8.848571777E-1
5.085659948E0,-3.150898814E-1,1.984498024E0,5.728950500E-1
5.093594518E0,-3.060340285E-1,1.597072601E0,5.001258850E-1
5.101498571E0,-1.682944894E-1,1.320623875E0,2.518463135E-1
5.109372106E0,-1.955971122E-2,1.121111870E0,1.620597839E-1
5.117306676E0,-8.363562822E-2,9.569864273E-1,7.896900177E-2
5.125180211E0,-8.606390655E-2,7.540574074E-1,1.246910095E-1
5.133023229E0,-5.443152040E-2,5.183787346E-1,3.286981583E-1
5.140843071E0,-1.660814881E-1,2.161717415E-1,8.420934677E-1
5.148808159E0,-3.030208051E-1,-1.036529541E-1,1.250588417E0
5.156773247E0,-3.503693640E-1,-3.443326950E-1,1.468877792E0
5.164646782E0,-3.576837182E-1,-4.709057808E-1,1.582636833E0
5.172611870E0,-4.900604486E-1,-7.099771500E-1,1.308865547E0
5.180515922E0,-6.652808785E-1,-9.311239719E-1,1.016861916E0
5.188389458E0,-7.051985264E-1,-1.150856972E0,4.825973511E-1
5.196324028E0,-6.591522694E-1,-1.360416174E0,-1.703510284E-1
5.204197563E0,-6.242971420E-1,-1.539214134E0,-4.986629486E-1
5.212132133E0,-4.544877410E-1,-1.628931046E0,1.922607422E-2
5.220005668E0,-2.374177873E-1,-1.717125654E0,1.396108627E0
5.227909721E0,-8.290972561E-2,-1.834568739E0,1.628040314E0
5.235844292E0,2.516460419E-1,-2.061214447E0,1.151111603E0
5.243717827E0,3.679452837E-1,-1.817337751E0,4.247188568E-1
5.251652397E0,-3.725814819E-2,-1.748457670E0,-2.786941528E-1
5.259525932E0,-3.605665863E-1,-1.326421738E0,-8.462114334E-1
5.267429985E0,-5.504343510E-1,-1.028986454E0,-1.375389099E0
5.275395073E0,-3.673185408E-1,-1.495961666E0,-1.855173588E0
5.283360161E0,-6.484215856E-1,-8.767509460E-1,-2.210010052E0
5.291294731E0,-8.917146921E-1,-5.784809589E-1,-2.151782036E0
5.299168266E0,-1.116737008E0,-2.970209122E-1,-1.421997070E0
5.307072319E0,-1.218647718E0,-1.442961693E-1,-7.714548111E-1
5.314976372E0,-1.199601650E0,-2.093076706E-2,-1.229667664E-1
5.322849907E0,-1.026031256E0,-1.185941696E-2,9.903812408E-2
5.330814995E0,-7.966656685E-1,-7.410907745E-2,-2.333536148E-1
5.338658012E0,-6.878260374E-1,-1.905469894E-1,-6.720037460E-1
5.346592583E0,-5.296651721E-1,-3.220472336E-1,-1.495600700E0
5.354557670E0,-4.072012305E-1,-5.126125813E-1,-2.312611103E0
5.362431206E0,-3.283518255E-1,-6.099641323E-1,-2.957285404E0
5.370365776E0,-1.668651998E-1,-8.030867577E-1,-3.392562389E0
5.378239311E0,-1.781913340E-1,-9.361670017E-1,-3.722485542E0
5.386143364E0,-1.915332675E-2,-9.703109264E-1,-3.760657787E0
5.394138969E0,1.640343070E-1,-8.026027679E-1,-2.858331680E0
5.402012504E0,4.355677366E-1,-5.039355755E-1,-1.569950104E0
5.409947075E0,5.074732900E-1,-2.203860283E-1,-5.284442902E-1
5.417790092E0,1.268641949E-1,-1.081848145E-2,-4.167165756E-1
5.425694145E0,-1.321594715E-1,2.418870926E-1,-7.623281479E-1
5.433659233E0,-3.245304227E-1,3.985357285E-1,-1.217027664E0
5.441532768E0,-4.106301069E-1,4.713749886E-1,-1.375351906E0
5.449406303E0,-2.307510972E-1,5.522208214E-1,-1.304758549E0
5.457279838E0,1.658493131E-1,6.014938354E-1,-1.329966545E0
5.465122856E0,3.717993200E-1,6.379823685E-1,-1.503161907E0
5.473087944E0,3.691789210E-1,6.980876923E-1,-1.388780594E0
5.480991997E0,3.331686556E-1,8.584980965E-1,-1.161629200E0
5.488957084E0,3.208165765E-1,1.048892021E0,-8.428716660E-1
5.496861137E0,3.358976245E-1,1.187814236E0,-4.481878281E-1
5.504734672E0,3.695932627E-1,1.249820232E0,-4.963998795E-1
5.512669243E0,4.069317281E-1,1.249153614E0,-4.704027176E-1
5.520695366E0,6.261153221E-1,1.220022678E0,-3.513889313E-1
5.528599418E0,8.356150985E-1,8.734245300E-1,-3.008413315E-1
5.536533989E0,1.107208610E0,5.996031761E-1,-2.837734222E-1
5.544560112E0,1.162398815E0,4.332704544E-1,-4.065179825E-1
5.552494682E0,9.086246490E-1,3.273701668E-1,-7.126083374E-1
5.560398735E0,8.380203247E-1,4.067006111E-1,-8.515434265E-1
5.568272270E0,8.385276794E-1,5.268959999E-1,-1.013373375E0
5.576176323E0,8.022449017E-1,6.201848984E-1,-9.858331680E-1
5.584049858E0,7.529633045E-1,7.431945801E-1,-9.647827148E-1
5.592014946E0,6.369448304E-1,8.996281624E-1,-6.479816437E-1
5.599888481E0,3.318718672E-1,1.171735287E0,6.101608276E-3
5.607823051E0,2.788496912E-1,1.554727077E0,8.502731323E-1
5.615696586E0,1.343283951E-1,1.876523495E0,1.375557899E0
5.623570122E0,-1.471300721E-1,2.152091026E0,1.721863747E0
5.631504692E0,-4.594615698E-1,2.417991638E0,1.874501228E0
5.639378227E0,-6.506391168E-1,2.535593987E0,1.972246170E0
5.647251762E0,-3.998181820E-1,2.386266708E0,1.954716682E0
5.655155815E0,1.092342883E-1,1.934849262E0,2.013087273E0
5.663090385E0,3.758791983E-1,1.593255043E0,1.898343086E0
5.671024956E0,4.494939744E-1,1.576967239E0,1.689533234E0
5.678898491E0,1.743197739E-1,1.752896786E0,1.165887833E0
5.686833061E0,-1.948504448E-1,1.985484600E0,5.064907074E-1
5.694737114E0,-5.712726116E-1,2.090013981E0,-9.109592438E-2
5.702610649E0,-6.600774527E-1,2.056318760E0,-4.617500305E-1
5.710545219E0,-6.342352629E-1,1.787237644E0,-3.130636215E-1
5.718418754E0,-6.294790506E-1,1.257795334E0,4.977054596E-1
5.726353325E0,-3.717872798E-1,6.177878380E-1,1.437181473E0
5.734226860E0,1.202168614E-1,-3.768920898E-3,2.138196945E0
5.742100395E0,5.586369634E-1,-6.543231010E-1,2.688098907E0
5.750065483E0,8.903301954E-1,-1.152716637E0,3.222879410E0
5.757939018E0,9.886637926E-1,-1.536064148E0,3.256211281E0
5.765904106E0,1.271755695E0,-1.931002617E0,3.011961937E0
5.773777641E0,1.482363582E0,-2.329328299E0,2.397521019E0
5.781620659E0,1.165903807E0,-2.567440033E0,1.666258812E0
5.789585747E0,7.525550723E-1,-2.481885910E0,9.208240509E-1
5.797489799E0,3.268890381E-1,-2.145615101E0,5.316314697E-1
5.805454887E0,-1.772047579E-1,-1.685131550E0,3.213014603E-1
5.813328422E0,-4.915585220E-1,-1.215220451E0,-6.600093842E-2
5.821201958E0,-7.131370306E-1,-8.414688110E-1,-5.415434837E-1
5.829167045E0,-7.708317041E-1,-6.330566406E-1,-1.198852539E0
5.837040581E0,-6.067064404E-1,-5.642905235E-1,-1.656303883E0
5.844914116E0,-3.390062451E-1,-6.552896500E-1,-2.019681931E0
5.852787651E0,-7.274586707E-2,-7.892279625E-1,-2.045059681E0
5.860661186E0,1.801269948E-1,-9.263896942E-1,-2.005700111E0
5.868626274E0,4.540662766E-1,-1.094268799E0,-2.012525082E0
5.876499809E0,6.102232337E-1,-1.250094891E0,-1.808303833E0
5.884434379E0,8.839994669E-1,-1.285792828E0,-1.570463181E0
5.892338432E0,1.069433451E0,-1.325456619E0,-5.115585327E-1
5.900211967E0,1.213351846E0,-1.167161465E0,6.550788879E-1
5.908146538E0,1.046787381E0,-9.648890495E-1,2.043068886E0
5.916050590E0,8.484795690E-1,-6.720762253E-1,2.029052734E0
5.923924125E0,2.559464872E-1,-5.518817902E-1,1.461860657E0
5.931858696E0,-8.540886641E-2,-3.600215912E-1,8.848648071E-1
5.939793266E0,-5.008399487E-3,-9.879636765E-2,6.145305634E-1
5.947758354E0,-4.356735349E-1,1.193370819E-1,7.601375580E-1
5.955631889E0,-6.923998594E-1,1.096162796E-1,-1.728363037E-1
5.963566459E0,-2.492413819E-1,-6.188869476E-2,-9.672799110E-1
5.971439995E0,-2.202025056E-2,-2.987947464E-1,-2.171236038E0
5.979344047E0,-1.442207992E-1,-5.506973267E-1,-2.643177986E0
5.987309135E0,-1.519556046E-1,-6.778712273E-1,-3.499370098E0
5.995213188E0,-2.567001581E-1,-7.181553841E-1,-3.810444832E0
6.003178276E0,-1.703778207E-1,-6.478381157E-1,-3.379314899E0
6.011051811E0,8.222928643E-2,-5.780467987E-1,-2.784709930E0
6.018925346E0,-3.756806850E-1,-5.509452820E-1,-2.626256466E0
6.026859917E0,-4.419242740E-1,-5.778436661E-1,-2.469507694E0
6.034733452E0,-8.343881369E-2,-7.914848328E-1,-2.110890388E0
6.042576469E0,3.505638838E-1,-9.629254341E-1,-1.827921391E0
6.050450004E0,6.514158249E-1,-1.046189785E0,-1.206806660E0
6.058323540E0,1.011445642E0,-9.687590599E-1,-7.324724197E-1
6.066258110E0,1.241454601E0,-8.297777176E-1,-4.494471550E-1
6.074131645E0,1.151077986E0,-7.016878128E-1,-2.900395393E-1
6.082066215E0,1.024452090E0,-4.822916985E-1,-2.680172920E-1
6.089970268E0,9.637204409E-1,-2.607765198E-1,-3.878474236E-1
6.097843803E0,9.395864010E-1,-3.200244904E-2,-8.315639496E-1
6.105778374E0,6.769073606E-1,1.809720993E-1,-1.106495857E0
6.113651909E0,4.146763980E-1,3.480205536E-1,-8.996500969E-1
6.121586479E0,3.426368833E-1,5.045471191E-1,-1.464986801E0
6.129460014E0,2.850653231E-1,5.534644127E-1,-1.067854404E0
6.137333549E0,2.686342895E-1,6.237673759E-1,-9.174580574E-1
6.145268120E0,5.472333431E-1,6.831474304E-1,-7.019853592E-1
6.153141655E0,5.110795498E-1,6.079654694E-1,-8.191704750E-1
6.161076225E0,5.626344681E-1,4.878225327E-1,-7.313485146E-1
6.168980278E0,7.506929636E-1,4.765210152E-1,-7.643718719E-1
6.176853813E0,7.391606569E-1,4.057068825E-1,-8.595118523E-1
6.184788383E0,5.710949898E-1,3.892683983E-1,-1.247762203E0
6.192661918E0,4.371289611E-1,5.097212791E-1,-1.226371765E0
6.200596489E0,2.596138120E-1,7.041172981E-1,-8.163285255E-1
6.208531059E0,3.799676895E-2,7.945752144E-1,-3.838200569E-1
6.216465629E0,-2.472373247E-1,8.115406036E-1,4.530324936E-1
6.224430717E0,-3.587685227E-1,7.719917297E-1,6.818928719E-1
6.232304252E0,-4.816399813E-1,7.535004616E-1,8.440551758E-1
6.240238823E0,-5.972533226E-1,8.666563034E-1,7.573051453E-1
6.248173393E0,-1.029978514E0,7.924909592E-1,-2.920585155E0
6.256107963E0,-1.211822510E0,9.360432625E-1,-9.504079819E-2
6.264073051E0,-7.987619638E-1,1.368721962E0,2.112149239E0
6.271946586E0,-1.188624620E0,1.769311905E0,3.287422180E0
6.279881157E0,-9.926028252E-1,1.790364265E0,3.796243191E0
6.287754692E0,-4.370149970E-1,1.715455532E0,3.409909725E0
6.295658745E0,-4.708740115E-1,1.606580257E0,2.627692699E0
6.303593315E0,-1.095453978E0,1.697082996E0,2.421604156E0
6.311497368E0,-1.549245000E0,2.192141056E0,2.131528378E0
6.319431938E0,-1.663339615E0,2.487819672E0,1.782039165E0
6.327335991E0,-1.857399464E0,2.213004112E0,1.201476097E0
6.335270561E0,-1.829645634E0,1.758635998E0,9.667859077E-1
6.343235649E0,-1.375266552E0,1.106676102E0,1.002648354E0
6.351109184E0,-7.903544903E-1,2.555932999E-1,1.332036972E0
6.359043754E0,-4.758750200E-1,-2.776217461E-1,2.215826511E0
6.366917290E0,-4.692188501E-1,-6.777210236E-1,2.990741253E0
6.374821342E0,6.701231003E-3,-1.462196350E0,3.497908592E0
6.382755913E0,7.982980013E-1,-1.794763088E0,4.208836079E0
6.390629448E0,8.141822815E-1,-2.379292727E0,4.135854244E0
6.398564018E0,6.773698330E-1,-2.543027401E0,3.346135139E0
6.406437553E0,4.215443134E-1,-2.607565880E0,2.228739738E0
6.414280571E0,2.710512280E-1,-2.680572510E0,1.205441475E0
6.422245659E0,-8.190274239E-3,-2.757435322E0,4.589214325E-1
6.430119194E0,-1.905366182E-1,-2.829181194E0,-3.477077484E-1
6.438053764E0,-3.528246880E-1,-2.865584850E0,-9.503087997E-1
6.445927299E0,-5.870614052E-1,-2.858372211E0,-1.065062523E0
6.453800834E0,-8.256344795E-1,-2.746507645E0,-1.009488583E0
6.461796440E0,-7.534259558E-1,-2.564151525E0,-1.058836460E0
6.469761528E0,-4.272822142E-1,-2.354588032E0,-1.397185326E0
6.477696098E0,-2.520292997E-1,-2.196833611E0,-1.863096714E0
6.485569633E0,-2.537212372E-1,-1.880135536E0,-2.280453682E0
6.493473686E0,-5.821766257E-1,-1.455470085E0,-2.662580013E0
6.501438774E0,-8.396794200E-1,-1.036259651E0,-2.132669449E0
6.510136284E0,-8.759865761E-1,-8.572793007E-1,-1.052835464E0
6.517429985E0,-9.469333887E-1,-7.502846718E-1,1.451482773E-1
6.525334038E0,-1.316647649E0,-7.725677490E-1,1.342800617E0
6.533207573E0,-1.385784388E0,-8.526349068E-1,2.138214111E0
6.541142143E0,-7.832469344E-1,-7.501010895E-1,1.081242561E0
6.549015678E0,-6.811439991E-1,-9.596586227E-1,5.581598282E-1
6.556950249E0,-5.462064743E-1,-1.147812366E0,1.608834267E-1
6.564854301E0,-3.854690194E-1,-1.290770531E0,-4.531865120E-1
6.572727836E0,-4.291288257E-1,-1.509730339E0,-1.154419422E0
6.580692924E0,-6.617883444E-1,-1.757821083E0,-1.843575478E0
6.588566459E0,-4.244385958E-1,-1.560702324E0,-2.184948444E0
6.596501030E0,-3.742588758E-1,-1.396620750E0,-1.994861126E0
6.604527153E0,-5.872570872E-1,-1.413189888E0,-1.583763599E0
6.612461723E0,-7.437587380E-1,-1.379220486E0,-1.273819923E0
6.620365776E0,-7.959272265E-1,-1.242887974E0,-1.341732979E0
6.628239311E0,-7.512305379E-1,-1.066418171E0,-1.452357769E0
6.636234917E0,-7.330337763E-1,-9.790635109E-1,-1.440658569E0
6.644138969E0,-7.592933774E-1,-9.233589172E-1,-1.565052032E0
6.652043022E0,-7.206621170E-1,-6.953377724E-1,-1.794621468E0
6.660008110E0,-8.475559950E-1,-4.034738541E-1,-1.704436302E0
6.667881645E0,-1.057491302E0,-2.847557068E-1,-1.668190479E0
6.675755180E0,-1.384192228E0,-3.135180473E-1,-1.709519386E0
6.683659233E0,-6.856483817E-1,-1.685857773E-2,-1.162304878E0
6.691532768E0,-9.957399964E-1,-1.787023544E-1,-4.147377014E-1
6.699467338E0,-7.148723006E-1,-2.988433838E-2,3.269610405E-1
6.707371391E0,-7.381772399E-1,5.209064484E-2,9.126129150E-1
6.715336479E0,-8.543095589E-1,3.467173576E-1,1.916724682E0
6.723240532E0,-9.403331280E-1,4.609355927E-1,2.591848373E0
6.731114067E0,-1.246269345E0,1.811413765E-1,2.325631142E0
6.739048637E0,-3.076618314E-1,4.462409019E-1,1.901192665E0
6.746952690E0,-7.939178944E-1,2.443079948E-1,9.949221611E-1
6.754887260E0,-8.376727104E-1,2.706336975E-1,-1.552333832E-1
6.762791313E0,-5.651636124E-1,4.197926521E-1,-9.071164131E-1
6.770664848E0,-4.907902181E-1,6.385550499E-1,-1.147407055E0
6.778599418E0,-5.210331678E-1,8.296980858E-1,-8.581233025E-1
6.786472954E0,-4.151425064E-1,7.471914291E-1,-5.687904358E-2
6.794438042E0,-1.049764872E0,1.718401909E-1,1.563129425E-1
6.802311577E0,-5.431922078E-1,-2.013812065E-1,-3.410100937E-1
6.810215629E0,1.481977850E-1,-3.798837662E-1,-1.141842842E0
6.818180717E0,7.514213920E-1,-3.113136292E-1,-2.078582764E0
6.826054252E0,1.093703866E0,-7.760429382E-2,-2.674971104E0
6.833988823E0,1.235765696E0,1.097416878E-1,-2.921341658E0
6.841892875E0,1.126262307E0,4.379582405E-1,-2.342020035E0
6.849766411E0,9.611340761E-1,9.967193604E-1,-8.641247749E-1
6.857700981E0,-5.357418060E-1,9.723072052E-1,1.544041634E-1
6.865574516E0,-7.889413834E-1,1.513472080E0,8.989129066E-1
6.873539604E0,-1.064168215E0,1.932797909E0,1.343639851E0
6.881413139E0,-1.143668890E0,2.137418747E0,1.701483250E0
6.889317192E0,-1.249651670E0,2.294994354E0,1.879374504E0
6.897282280E0,-1.399906754E0,2.286362171E0,1.661259174E0
6.905125297E0,-1.501466632E0,2.072300911E0,1.323242188E0
6.913120903E0,-1.556161046E0,1.970308304E0,8.589549065E-1
6.920994438E0,-1.376271367E0,1.695881367E0,4.977321625E-1
6.928898491E0,-3.066462576E-1,1.165712357E0,1.019197941E0
6.936894096E0,1.246232748E0,4.183897972E-1,4.955797195E-1
6.944798149E0,1.471844316E0,-1.906895638E-1,1.494692802E0
6.952763237E0,1.222100854E0,-2.654590607E-1,3.675799847E0
6.960667290E0,1.389995337E0,-5.975341797E-1,4.888538837E0
6.968540825E0,1.100292563E0,-1.059568405E0,5.273941517E0
6.976475395E0,7.047662139E-1,-1.291858673E0,4.304784775E0
6.984409965E0,2.094176412E-1,-1.344050884E0,2.945504189E0
6.992344536E0,-1.239342093E-1,-1.489970684E0,1.273340702E0
7.000248588E0,1.567604244E-1,-1.471195221E0,-3.169054985E-1
7.008122124E0,-2.871661186E-1,-1.699578762E0,-7.911596298E-1
7.016056694E0,-4.578073323E-1,-1.881534576E0,-3.587312698E-1
7.023960747E0,-8.691440821E-1,-2.021886349E0,-2.844834328E-1
7.031925834E0,-5.357907414E-1,-1.387961388E0,-3.794717789E-2
7.039799370E0,-5.660489798E-1,-1.249914169E0,4.818615913E-1
7.047703422E0,-5.306569338E-1,-1.400949955E0,1.207116604E0
7.055699028E0,-3.435948193E-1,-1.579518795E0,1.723779678E0
7.063603081E0,-4.154295027E-1,-1.682044506E0,1.364073277E0
7.071568168E0,-4.407750368E-1,-1.659081459E0,2.422709465E-1
7.079441704E0,-3.343211114E-1,-1.694773197E0,-1.157404900E0
7.087315239E0,6.640005112E-2,-1.705606461E0,-2.082767487E0
7.095280327E0,5.356636643E-1,-1.703212261E0,-2.432320595E0
7.103153862E0,7.924696803E-1,-1.806651115E0,-2.428199291E0
7.111118950E0,1.342799187E0,-1.879270077E0,-1.945033550E0
7.119023002E0,1.124316931E0,-2.132116318E0,-1.224922657E0
7.126896538E0,1.317279577E0,-1.886351109E0,-5.546302795E-1
7.134861625E0,1.058689952E0,-1.707186222E0,9.120054245E-1
7.142765678E0,5.135427117E-1,-1.680837631E0,2.152876854E0
7.150700249E0,2.940006852E-1,-1.530653000E0,2.400572777E0
7.158695854E0,2.925887704E-1,-1.266788960E0,1.416516781E0
7.166660942E0,-1.778078377E-1,-1.182061672E0,5.429258347E-1
7.174656547E0,-5.208528042E-1,-1.171414375E0,1.007485390E-1
7.182530083E0,-6.052575707E-1,-1.082209110E0,-2.352399826E-1
7.190495170E0,-5.096627474E-1,-9.695611000E-1,-9.584460258E-1
7.198368706E0,-3.623275459E-1,-9.032783508E-1,-1.721388817E0
7.206272758E0,-2.311989367E-1,-8.756351471E-1,-1.952284336E0
7.214207329E0,-2.428966761E-2,-7.862353325E-1,-1.402070999E0
7.222141899E0,-5.100171566E-1,-7.435641289E-1,-9.754796028E-1
7.230015434E0,-5.057832599E-1,-5.894861221E-1,-1.067876339E0
7.237919487E0,-5.577566624E-1,-6.053724289E-1,-1.279851913E0
7.245762504E0,-4.339254498E-1,-6.270890236E-1,-1.631864071E0
7.253758110E0,-3.369176388E-2,-6.383757591E-1,-1.733187675E0
7.261631645E0,3.250153661E-1,-7.387447357E-1,-1.960830688E0
7.269566215E0,4.810596108E-1,-9.863810539E-1,-1.753816128E0
7.277409233E0,1.504447937E0,-9.312939644E-1,-1.289188385E0
7.285313286E0,8.181814551E-1,-1.387603760E0,-3.442893028E-1
7.293278374E0,9.521197677E-1,-1.182212353E0,3.648662567E-2
7.301151909E0,8.144472241E-1,-8.771953583E-1,-1.451864243E-1
7.309116997E0,3.728911877E-1,-4.078707695E-1,-4.173321724E-1
7.316990532E0,-3.264403343E-1,1.476287842E-3,-4.381771088E-1
7.324925102E0,-7.770113945E-1,3.612489700E-1,-4.045901299E-1
7.332920708E0,-8.350017667E-1,5.701847076E-1,-4.306011200E-1
7.340794243E0,-7.776627541E-1,6.623067856E-1,-3.204574585E-1
7.348759331E0,-6.046162844E-1,6.687841415E-1,-2.127976418E-1
7.356632866E0,-4.243063033E-1,6.985869408E-1,-8.526277542E-2
7.364536918E0,-2.926306725E-1,7.234954834E-1,2.462582588E-1
7.372532524E0,-1.529012620E-1,7.462625504E-1,5.728864670E-1
7.380436577E0,-1.465942711E-1,8.401885033E-1,9.621157646E-1
7.388432182E0,-2.889059782E-1,9.995861053E-1,1.305088043E0
7.396336235E0,-1.792345345E-1,1.192873478E0,1.240792751E0
7.404209770E0,-9.557560086E-2,1.314312935E0,1.193568707E0
7.412144340E0,2.618322372E-1,1.431661129E0,1.320646763E0
7.420017875E0,3.922333121E-1,1.511348248E0,1.741692066E0
7.427860893E0,2.883412540E-1,1.498916626E0,2.140101433E0
7.435764946E0,1.143856049E-1,1.499559402E0,2.271697521E0
7.443638481E0,1.700952649E-2,1.408009052E0,2.014472961E0
7.451603569E0,-1.105206460E-1,1.323084831E0,1.789357185E0
7.459477104E0,-1.317544281E-1,1.195370197E0,1.590780735E0
7.467472709E0,-2.926573157E-1,1.136921883E0,1.397554398E0
7.475346245E0,-3.635563850E-1,1.153459549E0,1.237354755E0
7.483280815E0,-1.771106869E-1,1.039610863E0,1.115929604E0
7.491276420E0,-1.866874844E-1,8.361034393E-1,8.022894859E-1
7.499180473E0,-2.262361944E-1,7.546348572E-1,1.028869629E0
7.507115043E0,-5.548530817E-1,1.613254547E-1,1.175201893E0
7.515049614E0,-4.540891945E-2,-7.422685623E-2,9.286289215E-1
7.522984184E0,9.345477819E-2,-1.436586380E-1,1.424228668E0
7.530949272E0,-1.154916212E-1,-2.514557838E-1,2.416442871E0
7.539646782E0,-1.154958010E-1,-6.395487785E-1,3.365774632E0
7.546818413E0,-2.669496536E-1,-8.236279488E-1,3.345431328E0
7.554691948E0,-5.363333821E-1,-9.851536751E-1,2.522813320E0
7.562565483E0,-7.641793489E-1,-1.131272316E0,1.833725452E0
7.570530571E0,-8.679265976E-1,-1.376601696E0,1.227320194E0
7.578373588E0,-9.839079380E-1,-1.475304127E0,6.515064240E-1
7.586369194E0,-1.062197685E0,-1.532676697E0,-2.268476486E-1
7.594273247E0,-1.123387218E0,-1.842263699E0,-1.401214600E-1
7.602146782E0,-9.669448137E-1,-2.123418331E0,2.519812584E-1
7.610081352E0,-8.132548332E-1,-2.317533016E0,7.577548027E-1
7.617954887E0,-5.220149159E-1,-2.348353386E0,1.387505054E0
7.625889458E0,-3.727409244E-1,-2.446676731E0,1.736642361E0
7.633732475E0,-4.148566127E-1,-2.470649242E0,1.440754414E0
7.641667045E0,-3.459978402E-1,-2.334764957E0,7.124118805E-1
7.649601616E0,-4.567129016E-1,-2.082601070E0,-6.795802116E-1
7.657444633E0,-7.048302889E-1,-1.813746452E0,-1.435037136E0
7.665287651E0,-8.155562878E-1,-1.536925316E0,-1.449632645E0
7.673191704E0,-9.944056869E-1,-1.303420067E0,-9.328174591E-1
7.681065239E0,-1.126238346E0,-1.120300770E0,-1.528034210E-1
7.688999809E0,-1.127599478E0,-9.626283646E-1,4.827914238E-1
7.696842827E0,-1.091578245E0,-8.736443520E-1,8.904871941E-1
7.704746879E0,-1.051492453E0,-9.198799133E-1,1.100989342E0
7.712620415E0,-8.777141571E-1,-9.869651794E-1,1.102590561E0
7.720585502E0,-7.118920088E-1,-1.099734306E0,8.485836983E-1
7.728520073E0,-5.477219820E-1,-1.311013222E0,5.091099739E-1
7.736454643E0,-5.176225901E-1,-1.565711498E0,-7.146072388E-2
7.744328178E0,-4.938963056E-1,-1.795907974E0,-7.742705345E-1
7.752201713E0,-3.631735742E-1,-1.916687489E0,-1.526170254E0
7.760044731E0,-2.579140663E-1,-1.998711586E0,-2.115482330E0
7.768009819E0,-4.857486486E-2,-2.004156113E0,-2.443667412E0
7.775883354E0,2.215155661E-1,-1.939275742E0,-2.468722343E0
7.783817924E0,2.052263916E-1,-1.792397022E0,-2.295815945E0
7.791721977E0,2.120928764E-1,-1.569322109E0,-2.089279652E0
7.799626030E0,8.383080363E-2,-1.345106602E0,-1.592215538E0
7.807560600E0,-2.989406884E-1,-1.159325600E0,-1.454556465E0
7.815464653E0,-6.872770786E-1,-1.026712894E0,-1.467470169E0
7.823307670E0,-8.736300468E-1,-7.988233566E-1,-1.527801037E0
7.831211723E0,-9.563301802E-1,-5.906672478E-1,-1.654436588E0
7.839176811E0,-1.077309966E0,-3.510046005E-1,-1.611319542E0
7.847141899E0,-1.146788955E0,-1.821079254E-1,-1.370346069E0
7.855015434E0,-1.075890779E0,-8.428573608E-2,-9.455571175E-1
7.862950004E0,-7.831476927E-1,-5.777835846E-3,-8.102068901E-1
7.870823540E0,-5.598397255E-1,-3.303384781E-2,-6.288909912E-1
7.878727592E0,-5.208348036E-1,-8.443880081E-2,-3.443779945E-1
7.886723198E0,-3.614608645E-1,-5.713462830E-2,-2.535057068E-1
7.894627250E0,-1.603364944E-1,-1.614141464E-2,5.881881714E-2
7.902592338E0,-1.282411218E-1,-1.093659401E-1,4.510231018E-1
7.910465874E0,-6.292945147E-2,-1.461081505E-1,7.086930275E-1
7.918369926E0,-1.504543424E-2,1.411962509E-1,1.144437790E0
7.926304497E0,-2.794549465E-1,3.612270355E-1,1.570734501E0
7.934239067E0,-1.504083872E-1,9.332323074E-2,1.596951962E0
7.942173637E0,-1.187669933E-1,1.883115768E-1,1.273766994E0
7.950077690E0,-4.501074553E-2,3.988747597E-1,6.271781921E-1
7.957951225E0,-2.276653051E-2,5.791001320E-1,-1.025390625E-2
7.965885795E0,2.114397287E-2,7.878880501E-1,-3.861918449E-1
7.973759331E0,2.140265703E-2,1.196219444E0,-4.112792015E-1
7.981724418E0,-1.437871754E-1,1.592666149E0,4.927587509E-2
7.989597954E0,-3.419243395E-1,1.886004448E0,6.221308708E-1
7.997563042E0,-5.051023960E-1,2.168155670E0,1.136398315E0
8.005528129E0,-5.820026398E-1,2.489680290E0,1.749947071E0
8.013432182E0,-6.892985106E-1,2.550891876E0,2.901628971E0
8.021397270E0,-5.311868787E-1,2.265044689E0,2.679390430E0
8.029270805E0,-3.433842659E-1,1.975824356E0,2.246136665E0
8.037144340E0,-3.068774045E-1,1.676981926E0,1.677649975E0
8.045078911E0,-6.738126278E-2,1.471513271E0,8.709101677E-1
8.052952446E0,7.982748747E-2,1.375339031E0,5.326619148E-1
8.060856499E0,1.996801198E-1,1.264395237E0,7.502388954E-1
8.068730034E0,2.146070898E-1,1.007276535E0,9.795560837E-1
8.076634086E0,2.972943783E-1,8.023433685E-1,9.000406265E-1
8.084599174E0,4.082099199E-1,4.826383591E-1,6.449604034E-1
8.092472709E0,6.991305351E-1,-1.082744598E-1,6.409282684E-1
8.100407280E0,1.104031324E0,-6.009840965E-1,1.878285408E0
8.108311333E0,1.283111095E0,-7.410268784E-1,2.716858387E0
8.116184868E0,1.254733562E0,-1.144817829E0,3.165422440E0
8.124119438E0,1.060036421E0,-1.467252731E0,3.046904087E0
8.132023491E0,9.418157935E-1,-1.531829834E0,2.517888069E0
8.139897026E0,8.535941243E-1,-1.383039474E0,2.175792694E0
8.147770561E0,4.372385144E-1,-1.319147110E0,1.945075512E0
8.155674614E0,1.194242239E-1,-1.155766964E0,1.497666359E0
8.163609184E0,5.409985781E-2,-1.028501511E0,9.499473572E-1
8.171482719E0,8.559954166E-2,-8.083558083E-1,2.841248512E-1
8.179417290E0,3.287336230E-1,-1.153162956E0,-1.222472191E-1
8.187382377E0,5.660409927E-1,-9.727845192E-1,-7.185282707E-1
8.195286430E0,6.039934158E-1,-7.660708427E-1,-5.405039787E-1
8.203221000E0,1.918535829E-1,-9.301509857E-1,-4.313845634E-1
8.211094536E0,4.259213805E-1,-1.038881779E0,-5.733494759E-1
8.219029106E0,7.331336737E-1,-1.089268684E0,-6.706070900E-1
8.226902641E0,7.766587734E-1,-1.288309097E0,-4.816536903E-1
8.234806694E0,7.919247150E-1,-1.264612198E0,-5.723056793E-1
8.242741264E0,7.497116327E-1,-9.905352592E-1,-9.375452995E-1
8.250645317E0,2.665729523E-1,-9.748063087E-1,-1.068232536E0
8.258610405E0,-4.211063385E-1,-6.428060532E-1,-8.493480682E-1
8.266514458E0,-8.324937224E-1,-3.305296898E-1,-2.513051033E-1
8.274387993E0,-1.493878722E0,-2.075214386E-1,1.773500443E-1
8.282383598E0,-1.459341526E0,8.487939835E-2,-5.146408081E-2
8.290257133E0,-1.032166481E0,5.262517929E-2,-7.842078209E-1
8.298252739E0,-8.009010553E-1,-1.950001717E-1,-1.086277485E0
8.306095756E0,-7.377771735E-1,-4.082388878E-1,-1.586697102E0
8.313969292E0,-5.208196044E-1,-5.652546883E-1,-2.294623375E0
8.321903862E0,-4.320714474E-1,-6.230664253E-1,-2.779052258E0
8.329777397E0,-5.769011974E-1,-8.529191017E-1,-3.051207542E0
8.337742485E0,-7.420783043E-1,-9.333419800E-1,-3.673998594E0
8.345616020E0,-5.840134025E-1,-1.041715145E0,-3.775141478E0
8.353489555E0,-4.688093066E-1,-2.824721336E-1,-2.940258503E0
8.361424125E0,-7.291634679E-1,-3.963575363E-1,-1.109767914E0
8.369328178E0,3.075890541E-1,-3.372750282E-1,1.357297897E-1
8.377293266E0,-1.547595978E0,-1.095155716E0,6.019124985E-1
8.385197319E0,-8.368492723E-1,-5.566005707E-1,-9.260692596E-1
8.393070854E0,5.488761663E-1,-5.648708344E-2,-2.482515812E0
8.401035942E0,-7.789121866E-1,-7.706570625E-1,-3.635684729E0
8.408939995E0,-6.696594357E-1,-4.995985031E-1,-4.703880787E0
8.416905083E0,3.241505623E-1,-1.270651817E-1,-5.210172176E0
8.424748100E0,-4.775476456E-1,-4.417438507E-1,-4.135237217E0
8.432682670E0,-4.665368795E-1,-2.048754692E-1,-3.368976831E0
8.440678276E0,-3.562744856E-1,2.205557823E-1,-2.322697163E0
8.448551811E0,-1.539653897E0,1.876368523E-1,-1.748327255E0
8.456516899E0,-5.696383715E-1,3.143043518E-1,-1.967858315E0
8.464390434E0,-1.040483594E0,1.643061638E-1,-1.946737766E0
8.472294487E0,-6.330019832E-1,2.899575233E-1,-2.268369198E0
8.480259575E0,-5.521810055E-1,5.443339348E-1,-2.212667942E0
8.488133110E0,-3.164660931E-1,9.767942429E-1,-2.208141327E0
8.496067680E0,-2.862372994E-1,1.383289814E0,-1.265167236E0
8.504002250E0,-3.250693083E-1,1.397780895E0,1.604723930E-1
8.511906303E0,-1.815279722E-1,1.605065823E0,8.812689781E-1
8.519901909E0,-2.940554619E-1,2.117425442E0,6.083297729E-1
8.528507866E0,-5.218589306E-1,2.336742878E0,-3.750185966E-1
8.535893120E0,-6.826338768E-1,2.629690647E0,-8.795633316E-1
8.543766655E0,-1.118084311E0,2.718309402E0,-1.020157814E0
8.551670708E0,-1.357120275E0,2.848932743E0,-7.162714005E-1
8.559635795E0,-1.418905973E0,2.864829063E0,8.393907547E-2
8.567509331E0,-1.329234838E0,3.051923752E0,2.176399231E-1
8.575443901E0,-9.517834187E-1,3.239769459E0,-3.272142410E-1
8.583347954E0,-7.418938875E-1,3.328845978E0,-6.660337448E-1
8.591282524E0,-1.130756021E0,3.219435215E0,-5.912904739E-1
8.599247612E0,-1.392404556E0,3.162955761E0,-1.841444969E-1
8.607121147E0,-1.565265894E0,3.354444981E0,7.789993286E-2
8.615055717E0,-2.146875858E0,3.433921814E0,9.163408279E-1
8.622959770E0,-2.094568253E0,3.618463993E0,2.102046013E-1
8.630833305E0,-2.365003347E0,3.357953072E0,-3.694086075E-1
8.638767875E0,-2.463468552E0,2.887331486E0,-2.857561111E-1
8.646641411E0,-2.265966177E0,2.384923935E0,3.095583916E-1
8.654606499E0,-1.365510464E0,2.123198032E0,1.376747131E0
8.662480034E0,-1.235020399E0,1.565417290E0,2.448945045E0
8.670353569E0,-6.931165457E-1,1.283483505E0,3.701216698E0
8.678318657E0,9.002497792E-2,8.789138794E-1,4.195621967E0
8.686192192E0,3.467300832E-1,1.219863892E-1,4.436927795E0
8.694157280E0,6.934792995E-1,-6.872172356E-1,4.687556744E0
8.702030815E0,7.999778986E-1,-1.280354977E0,4.269021034E0
8.709904350E0,4.785296321E-1,-1.738094330E0,3.596819401E0
8.717838920E0,-1.277553439E-1,-2.171734333E0,2.569327354E0
8.725773491E0,-4.198688865E-1,-2.187112808E0,1.192515373E0
8.733738579E0,-5.483762026E-1,-1.968278408E0,4.887070656E-1
8.741642631E0,-8.628920317E-1,-1.922408581E0,-2.744832039E-1
8.749516167E0,-1.278077126E0,-1.751826763E0,-1.049856663E0
8.757511772E0,-1.604852080E0,-1.335726738E0,-1.938978195E0
8.765415825E0,-1.919558644E0,-9.162268639E-1,-2.970146179E0
8.773380913E0,-2.180622578E0,-4.468927383E-1,-3.832814217E0
8.781254448E0,-2.424409151E0,-4.390907288E-2,-4.582982540E0
8.789189018E0,-2.358118534E0,1.677751541E-1,-4.394323349E0
8.797154106E0,-1.960681319E0,4.969596863E-3,-3.678457260E0
8.805027641E0,-1.393400550E0,-6.533288956E-2,-3.056864262E0
8.812962211E0,-6.186976433E-1,1.028647423E-1,-2.246544361E0
8.820866264E0,-9.277990460E-2,1.614170074E-1,9.195566177E-2
8.828739799E0,-1.865222454E-1,1.402902603E-2,2.747084141E0
8.836704887E0,-3.980350792E-1,-1.198949814E-1,3.927661419E0
8.844639458E0,-1.634733081E-1,-1.173753738E-1,4.084596634E0
8.852574028E0,1.725889444E-1,-3.890957832E-1,3.345787525E0
8.860478081E0,2.964881957E-1,-6.776585579E-1,2.042906761E0
8.868382133E0,2.700698376E-1,-8.115024567E-1,1.090761662E0
8.876316704E0,6.177425385E-2,-1.077259064E0,1.809644699E-1
8.884251274E0,1.003820896E-1,-1.276931763E0,-8.298840523E-1
8.892185844E0,1.594308019E-1,-1.313748837E0,-1.874306679E0
8.900059379E0,-1.398582458E-1,-1.325843334E0,-2.718227386E0
8.907932915E0,-3.635066748E-1,-1.236664772E0,-3.648786306E0
8.915898002E0,-4.197564125E-1,-1.119421959E0,-4.058549881E0
8.923893608E0,-5.259690881E-1,-1.004356384E0,-4.029858589E0
8.931736625E0,-8.005380630E-1,-9.323210716E-1,-3.775851727E0
8.939640678E0,-1.141178846E0,-7.823452950E-1,-3.518138647E0
8.947514213E0,-1.397803783E0,-4.214873314E-1,-3.293930531E0
8.955448784E0,-1.594228983E0,-1.526322365E-1,-3.145214081E0
8.963322319E0,-1.728280306E0,2.161359787E-2,-3.090930462E0
8.971287407E0,-1.684482098E0,1.924872398E-1,-3.174479008E0
8.979160942E0,-1.480159640E0,3.318161964E-1,-3.262263775E0
8.987064995E0,-1.192593575E0,4.209389687E-1,-3.136808872E0
8.995030083E0,-1.055409908E0,5.147814751E-1,-2.905827522E0
9.002903618E0,-9.725468159E-1,6.058592796E-1,-2.482873440E0
9.010746635E0,-8.699001670E-1,6.524219513E-1,-1.960317135E0
9.018650688E0,-9.313024282E-1,6.269574165E-1,-1.552598000E0
9.026524223E0,-9.915537238E-1,7.415928841E-1,-1.447960854E0
9.034458793E0,-9.305931926E-1,8.573565483E-1,-1.387507915E0
9.042332329E0,-8.730803728E-1,8.551564217E-1,-1.486721992E0
9.050297417E0,-7.230463624E-1,8.836808205E-1,-1.848798752E0
9.058201469E0,-6.244525909E-1,9.416656494E-1,-2.008486271E0
9.066075004E0,-5.962804556E-1,9.193854332E-1,-1.603347301E0
9.074040092E0,-5.360584855E-1,9.168863297E-1,-1.554628849E0
9.081913627E0,-5.062493086E-1,9.359683990E-1,-1.266499519E0
9.089787163E0,-3.511792719E-1,9.466762543E-1,-8.233056068E-1
9.097660698E0,-4.454466701E-2,9.771127701E-1,-1.155142784E-1
9.105503715E0,4.014581442E-2,9.261579514E-1,8.763656616E-1
9.113468803E0,-2.557697594E-1,1.015971184E0,1.407198429E0
9.121403374E0,-5.147372484E-1,1.195599556E0,1.757446289E0
9.129368461E0,-8.035326004E-1,1.540282726E0,2.072495937E0
9.137272514E0,-1.182753563E0,1.970084190E0,2.571334362E0
9.145146049E0,-1.319287062E0,2.359111786E0,2.970815659E0
9.153141655E0,-1.104991794E0,2.684338093E0,3.057012558E0
9.161106743E0,-1.011150837E0,2.780273438E0,3.421464443E0
9.169041313E0,-1.056611180E0,2.703768730E0,3.427911282E0
9.177036918E0,-1.282752514E0,2.557065010E0,2.687134743E0
9.185032524E0,-1.263269901E0,2.530626297E0,1.439966202E0
9.192967094E0,-1.027217865E0,2.492763996E0,4.472107887E-1
9.200840629E0,-8.362917900E-1,2.132525444E0,-3.022294044E-1
9.208744682E0,-4.374538660E-1,1.546449184E0,-6.902284622E-1
9.216648735E0,3.177099228E-1,9.549088478E-1,-5.764522552E-1
9.224522270E0,1.056852341E0,3.187637329E-1,-7.566165924E-2
9.232487358E0,1.903504729E0,-3.982505798E-1,6.351900101E-1
9.240391411E0,2.461332321E0,-1.063547611E0,1.703934193E0
9.248356499E0,2.749607801E0,-1.479698658E0,3.111061096E0
9.256260551E0,2.568852186E0,-1.713637829E0,4.727931499E0
9.264134086E0,2.215455055E0,-1.845449448E0,5.268675804E0
9.272129692E0,1.970563412E0,-1.875949860E0,4.970046043E0
9.280003227E0,1.496871829E0,-1.893225193E0,4.236484051E0
9.287937797E0,1.241953135E0,-1.912062645E0,3.099130154E0
9.295811333E0,8.120806813E-1,-1.848557949E0,2.220421791E0
9.303684868E0,5.299237967E-1,-1.818022251E0,1.315212250E0
9.311619438E0,2.820739150E-1,-1.682987690E0,3.775944710E-1
9.319523491E0,7.726126909E-2,-1.521015644E0,-4.433236122E-1
9.327366508E0,2.478206158E-2,-1.402466297E0,-1.029622078E0
9.335270561E0,1.390920877E-1,-1.355053902E0,-1.428140163E0
9.343144096E0,1.127778292E-1,-1.322607040E0,-1.788928986E0
9.351078667E0,9.756302834E-2,-1.353728771E0,-1.913342953E0
9.358952202E0,1.275515556E-1,-1.373733997E0,-2.138534069E0
9.366856254E0,4.415035248E-2,-1.395143032E0,-1.825127125E0
9.374760307E0,-1.487791538E-3,-1.479471684E0,-1.309203148E0
9.382633842E0,4.226325750E-1,-1.558484077E0,-9.829521179E-3
9.390568413E0,-7.431471348E-2,-1.806047916E0,2.338926315E0
9.398441948E0,-3.267383575E-1,-1.861238003E0,3.737485409E0
9.406284965E0,-7.560145855E-2,-1.555801868E0,3.588532448E0
9.414189018E0,-8.086985350E-2,-1.365210533E0,2.973621845E0
9.422062553E0,-1.832235754E-1,-1.240321636E0,1.919594765E0
9.429997124E0,3.368043900E-2,-1.148066521E0,5.697650909E-1
9.437870659E0,2.900613546E-1,-1.157068729E0,-5.125684738E-1
9.445835747E0,2.625611424E-1,-1.326753139E0,-1.433770657E0
9.453739799E0,7.931888103E-2,-1.478271961E0,-2.293938875E0
9.461613334E0,-6.847798824E-3,-1.494220257E0,-3.151229143E0
9.469608940E0,3.665703535E-2,-1.530909538E0,-3.873750210E0
9.477512993E0,1.463516951E-1,-1.617717743E0,-4.221984863E0
9.485478081E0,2.448683977E-2,-1.707865238E0,-4.317411900E0
9.493351616E0,3.472256660E-2,-1.727008343E0,-4.342256546E0
9.501255668E0,1.085551381E-1,-1.730082989E0,-4.349301815E0
9.509190239E0,2.414140701E-1,-1.671075821E0,-3.925104618E0
9.517094292E0,1.886739135E-1,-1.531131268E0,-3.081374884E0
9.525059379E0,-5.082607269E-3,-1.364233971E0,-2.156359911E0
9.532932915E0,-2.107738853E-1,-1.187530041E0,-1.028907776E0
9.540928520E0,-5.032048821E-1,-1.090156078E0,8.729600906E-2
9.548893608E0,-5.746674538E-1,-9.438095093E-1,6.484398842E-1
9.556767143E0,-3.124767840E-1,-8.299221992E-1,8.301162720E-1
9.564762749E0,2.626163960E-1,-8.064489365E-1,6.256184578E-1
9.572636284E0,1.828025877E-1,-9.661245346E-1,3.020973206E-1
9.580540336E0,7.388204336E-3,-9.958620071E-1,-5.020451546E-1
9.588505424E0,-6.375280023E-2,-9.197926521E-1,-1.262845516E0
9.596378959E0,9.989205003E-2,-7.042741776E-1,-1.947595119E0
9.604313530E0,2.755715549E-1,-7.156805992E-1,-2.870912552E0
9.612217583E0,4.894482791E-1,-5.141911507E-1,-3.050854683E0
9.620243706E0,5.533102751E-1,-3.644437790E-1,-2.666126013E0
9.628208793E0,2.491341531E-1,-1.491570473E-1,-1.893940926E0
9.636082329E0,-1.726152748E-1,1.326532364E-1,-1.053140640E0
9.643986381E0,-4.256180823E-1,4.639434814E-1,-5.255775452E-1
9.651890434E0,-5.672096610E-1,8.672885895E-1,-3.161287308E-2
9.659733452E0,-6.405401230E-1,1.157239437E0,1.883373260E-1
9.667698540E0,-5.830077529E-1,1.443475723E0,2.862992287E-1
9.675572075E0,-5.436438322E-1,1.677455425E0,2.240276337E-1
9.683506645E0,-3.965625167E-1,1.921953201E0,5.156164169E-1
9.691441215E0,-1.379101872E-1,2.143741131E0,8.079824448E-1
9.699345268E0,-5.023941398E-2,2.203263283E0,1.413289547E0
9.707310356E0,6.980329752E-3,2.192326546E0,2.055847168E0
9.715244926E0,1.111965328E-1,2.234806538E0,2.471354961E0
9.723210014E0,3.433091193E-2,2.257508278E0,2.673504829E0
9.731144584E0,-5.168296397E-2,2.324900627E0,2.631416321E0
9.739048637E0,-1.843796372E-1,2.425325394E0,2.280103683E0
9.747013725E0,-4.630919695E-1,2.588360786E0,1.649712563E0
9.754887260E0,-6.591099501E-1,2.875366211E0,8.413639069E-1
9.762760795E0,-9.087261558E-1,3.184125423E0,-3.398990631E-2
9.770634331E0,-1.183205843E0,3.428465843E0,-6.203618050E-1
9.778538383E0,-1.240937591E0,3.530632496E0,-1.058574200E0
9.786503471E0,-5.897147655E-1,3.408527851E0,-8.550672531E-1
9.794377006E0,-9.675973058E-1,2.430398464E0,1.897606850E-1
9.802311577E0,-2.428107560E-1,1.785914898E0,1.637762070E0
9.810185112E0,2.456529737E-1,8.208847046E-1,2.743641853E0
9.818089165E0,6.877692342E-1,-2.544169426E-1,4.538261414E0
9.826023735E0,1.184632540E0,-1.193199635E0,6.103449821E0
9.833958305E0,1.397426724E0,-1.877315044E0,6.961129189E0
9.841892875E0,1.407370806E0,-2.342523575E0,6.096853256E0
9.849766411E0,8.483690023E-1,-2.701160431E0,4.989541054E0
9.857639946E0,2.388299257E-1,-2.945865154E0,4.227170944E0
9.865574516E0,-2.390396148E-1,-2.953431606E0,2.901096821E0
9.873478569E0,-6.431561112E-1,-2.718414307E0,1.206990242E0
9.881443657E0,-9.914439917E-1,-2.562256813E0,-3.717494011E-1
9.889378227E0,-9.099982381E-1,-2.460285187E0,-1.949100018E0
9.897251762E0,-6.387277246E-1,-2.305725098E0,-3.300068617E0
9.905186333E0,-4.241061807E-1,-2.047643185E0,-4.215487480E0
9.913181938E0,-2.678313255E-1,-1.752528667E0,-4.639222145E0
9.921116508E0,-3.688334227E-1,-1.459387779E0,-4.502233505E0
9.928990043E0,-6.561376452E-1,-1.258275032E0,-3.760031223E0
9.936863579E0,-1.018135786E0,-1.140008450E0,-2.667189121E0
9.944767631E0,-1.278707385E0,-1.135026932E0,-1.562781811E0
9.952702202E0,-1.361484647E0,-1.069764137E0,-7.269496918E-1
9.960575737E0,-1.408721447E0,-1.164800167E0,-6.525611877E-2
9.968449272E0,-1.242723465E0,-1.235506058E0,1.758980751E-1
9.976322807E0,-8.776745200E-1,-1.229997158E0,2.344727516E-1
9.984257377E0,-6.532934904E-1,-1.268645287E0,2.476668358E-1
9.992130913E0,-5.068010688E-1,-1.343508720E0,-2.209215164E-1
1.000009600E1,-6.266431510E-2,-1.365429401E0,-6.452794075E-1
1.000796954E1,1.915392280E-1,-1.456968784E0,-8.263440132E-1
1.001584307E1,4.767806530E-1,-1.528270721E0,-4.707312584E-1
1.002377764E1,7.430421114E-1,-1.609567165E0,-3.144164085E-1
1.003165118E1,8.674488664E-1,-1.784955025E0,-5.034050941E-1
1.003949419E1,9.147371054E-1,-1.880623341E0,-9.987487793E-1
1.004739825E1,1.189050794E0,-1.819736004E0,-1.434469700E0
1.005527178E1,1.505247355E0,-1.773221016E0,-1.673646450E0
1.006323687E1,1.750936866E0,-1.630784988E0,-1.295060635E0
1.007111040E1,1.602424979E0,-1.584232330E0,-5.500912666E-1
1.007907549E1,1.352846384E0,-1.392159939E0,-1.857967377E-1
1.008697954E1,1.147287846E0,-1.058555603E0,-2.271547318E-1
1.009485308E1,7.881895304E-1,-7.224726677E-1,2.095866203E-1
1.010284869E1,2.762898207E-1,-4.989800453E-1,5.164604187E-1
1.011084429E1,-2.598797381E-1,-2.572426796E-1,6.272101402E-1
1.011874834E1,-7.447845936E-1,-4.841375351E-2,-3.503103256E-1
1.012665240E1,-1.079510450E0,2.457046509E-2,-2.147429466E0
1.013455645E1,-1.057026148E0,3.458118439E-2,-1.459545135E0
1.014252154E1,-4.864692390E-1,3.267760277E-1,-1.996286392E0
1.015039507E1,5.839341879E-2,3.436155319E-1,-2.618991852E0
1.015826861E1,3.766201138E-1,2.822222710E-1,-2.236556053E0
1.016614214E1,3.488445878E-1,3.308992386E-1,-1.911509991E0
1.017398516E1,1.790501475E-1,5.197525024E-1,-1.099473476E0
1.018195025E1,-6.829375029E-2,6.440906525E-1,-4.593324661E-2
1.018978950E1,-4.667359591E-1,5.915584564E-1,1.344484806E0
1.019775459E1,-4.035851955E-1,5.287423134E-1,2.253745556E0
1.020565864E1,2.111852169E-1,5.706267357E-1,1.874678612E0
1.021356270E1,5.769713521E-1,4.445800781E-1,1.883293152E0
1.022149727E1,7.229880095E-1,4.650664330E-1,1.560280323E0
1.022937080E1,3.944737315E-1,1.874303818E-1,6.825280190E-1
1.023724434E1,2.191072106E-1,4.707570076E-1,-1.889133453E-2
1.024511787E1,-1.149739623E-1,1.055014610E0,1.335148811E-1
1.025299141E1,-6.048528552E-1,2.032690048E0,1.863903999E0
1.026092598E1,-1.132532716E0,2.861577511E0,3.800593376E0
1.026883003E1,-1.454341769E0,3.254644871E0,4.869784355E0
1.027679512E1,-1.683617353E0,3.370930672E0,5.048794270E0
1.028466865E1,-1.950019598E0,3.342726707E0,4.608052254E0
1.029254219E1,-2.285971642E0,3.218154430E0,3.253499031E0
1.030047676E1,-2.861326218E0,2.944743633E0,1.842839718E0
1.030841133E1,-2.758450508E0,2.892869949E0,-1.685986519E-1
1.031637642E1,-1.979095578E0,2.657810688E0,-1.839466572E0
1.032424995E1,-9.786905050E-1,2.002820015E0,-2.847607613E0
1.033215401E1,3.778565526E-1,1.093313217E0,-3.129696131E0
1.034011909E1,1.875178933E0,1.301259995E-1,-2.307940483E0
1.034805366E1,2.797380924E0,-9.161739349E-1,-6.360092163E-1
1.035592720E1,3.334704876E0,-1.798887253E0,1.383269310E0
1.036383125E1,3.524807930E0,-2.492832184E0,3.770588398E0
1.037170479E1,3.455440283E0,-2.909728050E0,5.949521065E0
1.037966988E1,3.877943516E0,-2.988791943E0,5.922830105E0
1.038757393E1,3.903460979E0,-3.051150799E0,5.968694687E0
1.039553902E1,3.547853470E0,-3.103249788E0,4.980030060E0
1.040341255E1,3.114048004E0,-2.952259541E0,3.783856392E0
1.041131660E1,2.372265339E0,-2.659393311E0,2.232744217E0
1.041928169E1,1.310810804E0,-2.271496296E0,9.694623947E-1
1.042715523E1,3.781922460E-1,-1.821289062E0,1.129283905E-1
1.043505928E1,-1.656794548E-1,-1.287611961E0,-9.564075470E-1
1.044296333E1,-5.686827302E-1,-8.024244308E-1,-1.699183464E0
1.045089790E1,-7.394991517E-1,-5.431132317E-1,-2.471943378E0
1.045889351E1,-7.692143917E-1,-4.355006218E-1,-2.877175331E0
1.046676704E1,-7.469658256E-1,-5.140619278E-1,-2.921010494E0
1.047470161E1,-7.723264694E-1,-6.398620605E-1,-2.857323170E0
1.048260567E1,-5.076133609E-1,-8.298592567E-1,-2.496654987E0
1.049047920E1,-1.060386896E-1,-1.128655434E0,-1.789513111E0
1.049841377E1,1.008259058E-1,-1.384162903E0,-9.550309181E-1
1.050705025E1,2.047428489E-1,-1.601108551E0,2.077736855E-1
1.051437447E1,-5.451989174E-2,-1.795858860E0,1.552505970E0
1.052221748E1,1.868038177E-1,-1.668853283E0,1.279563904E0
1.053012154E1,3.356177211E-1,-1.565786362E0,9.759058952E-1
1.053808662E1,2.074834108E-1,-1.610338688E0,3.100705147E-1
1.054596016E1,1.687059402E-1,-1.624038219E0,-7.294535637E-1
1.055389473E1,1.277779937E-1,-1.614276409E0,-1.423979282E0
1.056179878E1,7.906603813E-2,-1.638811588E0,-1.964699268E0
1.056967232E1,6.899577379E-2,-1.595677376E0,-2.216501236E0
1.057763740E1,1.433984041E-1,-1.493658066E0,-2.251952648E0
1.058554146E1,1.117420793E-1,-1.404749393E0,-2.059018135E0
1.059347603E1,1.121151447E-1,-1.353846550E0,-1.646348953E0
1.060134956E1,1.714299321E-1,-1.227608681E0,-1.127295494E0
1.060931465E1,1.549909115E-1,-1.102178574E0,-1.050796509E0
1.061727974E1,9.348338842E-2,-9.854164124E-1,-1.301095486E0
1.062515327E1,4.982137680E-2,-8.789405823E-1,-1.533963203E0
1.063305733E1,3.129935265E-2,-7.552075386E-1,-1.822521687E0
1.064096138E1,-1.666903496E-3,-6.945748329E-1,-2.239618301E0
1.064886543E1,1.087881923E-1,-6.741275787E-1,-2.324345589E0
1.065683052E1,2.705228925E-1,-6.546058655E-1,-2.180605412E0
1.066470405E1,4.082869887E-1,-6.362009048E-1,-2.107629776E0
1.067260811E1,5.473362803E-1,-5.951542854E-1,-1.863340378E0
1.068048164E1,7.652018070E-1,-5.194616318E-1,-1.443054676E0
1.068835518E1,8.929201961E-1,-4.580502510E-1,-8.148326874E-1
1.069628975E1,7.980046272E-1,-3.579516411E-1,-3.265457153E-1
1.070419380E1,5.026124120E-1,-2.515616417E-1,-1.301465034E-1
1.071215889E1,2.878237367E-1,-5.047464371E-2,-3.616070747E-1
1.072006294E1,2.199509144E-1,2.032756805E-1,-7.486414909E-1
1.072796699E1,3.100749850E-1,4.329409599E-1,-1.027622223E0
1.073593208E1,3.991457820E-1,6.567988396E-1,-8.845019341E-1
1.074380562E1,3.728873730E-1,8.608436584E-1,-2.311220169E-1
1.075177070E1,1.138421297E-1,1.019346714E0,9.892392159E-1
1.075967476E1,-8.077162504E-2,1.301491737E0,1.882344723E0
1.076754829E1,-1.325523257E-1,1.551255226E0,2.122921467E0
1.077548286E1,-6.977498531E-2,1.703526020E0,2.020676136E0
1.078332588E1,1.585001349E-1,1.691854954E0,1.778742313E0
1.079129097E1,5.518151522E-1,1.654399872E0,1.905085087E0
1.079916450E1,8.917844892E-1,1.613625050E0,2.252442837E0
1.080703804E1,1.062696695E0,1.614554405E0,2.990890026E0
1.081497261E1,9.677606821E-1,1.807412148E0,3.871555805E0
1.082287666E1,4.818588495E-1,2.143592358E0,4.341929436E0
1.083084175E1,-2.127958238E-1,2.473271370E0,4.427946091E0
1.083874580E1,-9.879953861E-1,2.680652142E0,3.618876934E0
1.084661934E1,-1.643280268E0,2.681750774E0,2.284629345E0
1.085455391E1,-1.796207666E0,2.466400146E0,8.523492813E-1
1.086242744E1,-1.485199690E0,1.947514057E0,3.385591507E-2
1.087030098E1,-5.289836526E-1,1.204883575E0,-9.886841774E-1
1.087820503E1,2.658658624E-1,1.485714912E-1,-9.404525757E-1
1.088607857E1,1.963267088E0,-4.501986504E-1,-3.814072609E-1
1.089401314E1,2.762930393E0,-1.336053371E0,1.040748596E0
1.090200874E1,2.957644463E0,-2.202866554E0,3.223416328E0
1.090994331E1,2.688159943E0,-2.886497974E0,5.912561417E0
1.091784736E1,2.829623222E0,-3.022038937E0,6.775196075E0
1.092572090E1,2.761527538E0,-3.073861837E0,6.879019260E0
1.093368599E1,2.004992962E0,-3.161422968E0,5.881157398E0
1.094155952E1,1.069833875E0,-3.036127567E0,4.081348419E0
1.094949409E1,7.126113772E-2,-2.844257355E0,2.461686134E0
1.095739815E1,-7.730125189E-1,-2.497493267E0,9.147744179E-1
1.096527168E1,-1.185637474E0,-1.987019062E0,-5.872082710E-1
1.097323677E1,-1.864150524E0,-1.636794090E0,-1.808887482E0
1.098111030E1,-2.612418652E0,-1.209111691E0,-2.813271046E0
1.098904488E1,-3.160618305E0,-7.794160843E-1,-3.608891249E0
1.099691841E1,-3.361712456E0,-4.959225655E-1,-4.066895485E0
1.100482246E1,-3.126935720E0,-4.355134964E-1,-3.966877460E0
1.101278755E1,-2.637073278E0,-6.336894035E-1,-3.199042082E0
1.102072212E1,-2.195022583E0,-8.560366631E-1,-2.165158272E0
1.102865669E1,-1.755873203E0,-1.046296597E0,-1.119902611E0
1.103656074E1,-1.407893538E0,-1.205776215E0,-1.335539818E-1
1.104446480E1,-9.504384995E-1,-1.357361794E0,7.139124870E-1
1.105239937E1,-5.124297142E-1,-1.444769859E0,8.489427567E-1
1.106027290E1,-2.431483865E-1,-1.493058681E0,1.249468803E0
1.106814644E1,1.792107224E-1,-1.492541790E0,8.042078018E-1
1.107601997E1,4.509514868E-1,-1.492471695E0,5.440602303E-1
1.108389351E1,5.352761149E-1,-1.533335686E0,1.310791969E-1
1.109182808E1,5.126478076E-1,-1.611958027E0,-4.547643661E-1
1.109982368E1,3.981971741E-1,-1.708596230E0,-9.986333847E-1
1.110775825E1,3.251800537E-1,-1.776073933E0,-1.581229687E0
1.111566231E1,1.559544206E-1,-1.652974129E0,-2.074308872E0
1.112353584E1,-3.069177866E-1,-1.517615318E0,-2.397735119E0
1.113150093E1,-7.746725082E-1,-1.361794472E0,-2.660124779E0
1.113937447E1,-9.495247602E-1,-1.304059505E0,-2.867196083E0
1.114730904E1,-9.582372308E-1,-1.262374878E0,-2.947464943E0
1.115518257E1,-1.007973552E0,-1.193116188E0,-2.805458069E0
1.116308662E1,-9.491360784E-1,-1.223811150E0,-2.780604362E0
1.117102119E1,-7.733834982E-1,-1.265485764E0,-2.674329758E0
1.117889473E1,-5.695933700E-1,-1.172492981E0,-2.651351929E0
1.118679878E1,-5.538786054E-1,-9.537444115E-1,-2.324463367E0
1.119476387E1,-7.827799320E-1,-6.428370476E-1,-1.571754932E0
1.120269844E1,-9.659551978E-1,-1.872434616E-1,-1.037819386E0
1.121063301E1,-7.984689474E-1,1.279277802E-1,-2.582759857E-1
1.121850654E1,-2.642425895E-1,1.509103775E-1,1.102248192E0
1.122644112E1,3.857209086E-1,-3.112125397E-2,2.259150028E0
1.123431465E1,8.709442019E-1,-1.900396347E-1,2.382773399E0
1.124218818E1,7.919477820E-1,-3.299660683E-1,2.131197453E0
1.125012276E1,4.489848614E-1,-3.249077797E-1,1.544562817E0
1.125799629E1,2.403980494E-1,-1.305770874E-1,7.830595970E-1
1.126596138E1,2.081763744E-2,2.564115524E-1,4.303693771E-1
1.127383491E1,-2.556812763E-1,7.407755852E-1,3.471498489E-1
1.128167793E1,-5.795085430E-2,1.075494766E0,1.668787003E-1
1.128964302E1,2.975223064E-1,1.161729336E0,-4.481792450E-3
1.129754707E1,6.072418690E-1,1.163285255E0,-6.273412704E-2
1.130551216E1,4.497398138E-1,1.215775013E0,1.625308990E-1
1.131338570E1,7.755827904E-2,1.402231693E0,9.423103333E-1
1.132128975E1,-2.296283841E-1,1.623748779E0,1.146771908E0
1.132925484E1,-3.397954106E-1,1.692884922E0,1.119503498E0
1.133712837E1,-4.816018939E-1,1.594107628E0,1.314960480E0
1.134506294E1,-6.466902494E-1,1.511411190E0,2.052061558E0
1.135293648E1,-8.161204457E-1,1.481461525E0,2.893599987E0
1.136084053E1,-1.096810102E0,1.339256287E0,2.981642246E0
1.136880562E1,-1.285838008E0,1.046238899E0,2.242890835E0
1.137667915E1,-1.003521800E0,8.476567268E-1,1.206877708E0
1.138452217E1,-5.682757497E-1,6.521120071E-1,-5.587468147E-1
1.139245674E1,-3.197968602E-1,9.298391342E-1,-2.252178669E0
1.140033028E1,-5.761139393E-1,1.282274246E0,-3.142214298E0
1.140829536E1,-1.038982391E0,1.861220360E0,-1.664624691E0
1.141622993E1,-1.156017542E0,2.197747707E0,9.262828827E-1
1.142413399E1,-7.308483124E-1,1.973762035E0,2.653438568E0
1.143200752E1,-1.197309494E-1,1.209882736E0,3.542624950E0
1.143988106E1,2.246463299E-2,8.238792419E-2,3.677234173E0
1.144784614E1,3.473808765E-1,-7.676362991E-1,4.109350204E0
1.145571968E1,1.161262512E0,-1.324870110E0,4.073051453E0
1.146368477E1,1.691812515E0,-1.983018875E0,4.193949699E0
1.147158882E1,1.912089586E0,-2.344557524E0,3.990012646E0
1.147952339E1,1.686123490E0,-2.474452972E0,3.021573067E0
1.148748848E1,1.123979807E0,-2.381516457E0,2.455818176E0
1.149542305E1,4.894992113E-1,-2.075937986E0,3.142557621E0
1.150329658E1,4.902439117E-1,-1.568147182E0,3.708842278E0
1.151117012E1,6.199808121E-1,-1.409545898E0,2.764249325E0
1.151904365E1,2.825008631E-1,-1.556245804E0,9.930658340E-1
1.152700874E1,-4.815682173E-1,-1.688027859E0,-7.996220589E-1
1.153555366E1,-9.331762791E-1,-1.711287498E0,-2.221471310E0
1.154284736E1,-9.591010809E-1,-1.706270695E0,-3.125893593E0
1.155075142E1,-7.251822352E-1,-1.802927971E0,-3.507528782E0
1.155862495E1,-3.421322107E-1,-2.012402534E0,-3.167412281E0
1.156655952E1,9.500777721E-2,-2.271084547E0,-2.750048637E0
1.157449409E1,3.140344620E-1,-2.561488867E0,-2.761995792E0
1.158230659E1,5.810389519E-1,-2.691942692E0,-2.565924168E0
1.159021065E1,4.792894125E-1,-2.810381889E0,-1.907896519E0
1.159805366E1,2.640817165E-1,-2.732721806E0,-9.978098869E-1
1.160601875E1,1.813963652E-1,-2.461429358E0,5.116128922E-2
1.161389229E1,1.019707918E-1,-2.180253506E0,6.597490311E-1
1.162182686E1,-1.125514507E-2,-2.095511913E0,5.777635574E-1
1.162973091E1,-9.864890575E-2,-2.067793846E0,1.781921387E-1
1.163766548E1,-1.030278206E-2,-1.826330662E0,-3.911428452E-1
1.164563057E1,-5.458829999E-1,-2.147713900E0,-1.073977470E0
1.165353462E1,-3.704332113E-1,-2.332910538E0,-1.300430298E-2
1.166153023E1,1.010845900E-1,-2.283390522E0,1.409683228E0
1.166940376E1,4.377042055E-1,-2.298063755E0,1.518795967E0
1.167727730E1,6.993682384E-1,-2.414449453E0,5.541896820E-1
1.168521187E1,7.080206871E-1,-2.572376966E0,-9.553833008E-1
1.169320747E1,4.114420414E-1,-2.719381332E0,-2.079469204E0
1.170108101E1,1.731315851E-1,-2.638004065E0,-2.530289650E0
1.170898506E1,1.097116470E-1,-2.245449066E0,-2.325001240E0
1.171685860E1,5.801677704E-2,-1.682391644E0,-1.834290504E0
1.172482368E1,-1.834473610E-1,-1.188040733E0,-1.332824230E0
1.173269722E1,-6.226118803E-1,-6.469845772E-1,-8.136878014E-1
1.174066231E1,-1.071156740E0,-3.183126450E-1,-1.075258732E0
1.174853584E1,-1.201252699E0,-2.041726112E-1,-1.884912491E0
1.175643989E1,-1.153036118E0,-1.869173050E-1,-2.696636677E0
1.176437447E1,-1.085036039E0,-2.110781670E-1,-3.278296471E0
1.177230904E1,-1.011242509E0,-1.808185577E-1,-3.343086243E0
1.178018257E1,-6.772114038E-1,-1.182150841E-1,-2.753141880E0
1.178808662E1,-1.659610271E-1,-4.975271225E-2,-1.911562920E0
1.179596016E1,2.398819923E-1,2.796792984E-2,-1.063156605E0
1.180389473E1,4.333930016E-1,1.384582520E-1,-7.996177673E-2
1.181176826E1,5.583571196E-1,2.030115128E-1,7.754068375E-1
1.181970283E1,5.989992619E-1,1.823444366E-1,1.218078613E0
1.182757637E1,5.109702349E-1,2.370557785E-1,1.209579468E0
1.183548042E1,3.548418880E-1,2.971677780E-1,1.431228638E0
1.184344551E1,2.934359908E-1,4.436478615E-1,1.687758446E0
1.185131904E1,3.550804257E-1,5.654244423E-1,1.812759399E0
1.185925362E1,2.935564518E-1,6.965589523E-1,1.956641197E0
1.186712715E1,9.124946594E-2,8.010540009E-1,2.260770798E0
1.187503120E1,-1.044070721E-2,8.487501144E-1,2.797882080E0
1.188299629E1,2.008877993E-1,7.821307182E-1,3.277253151E0
1.189093086E1,5.108067393E-1,6.010141373E-1,3.737026215E0
1.189883491E1,5.059797764E-1,3.154282570E-1,3.931848526E0
1.190673897E1,5.532392263E-1,6.399869919E-2,3.505469322E0
1.191458198E1,6.584188938E-1,-4.459953308E-2,3.046563148E0
1.192257759E1,7.320891619E-1,1.368999481E-3,2.482140541E0
1.193051216E1,5.125727057E-1,2.847170830E-1,1.698747635E0
1.193850776E1,9.117740393E-2,6.257963181E-1,8.192071915E-1
1.194638130E1,-5.001194477E-1,1.078092575E0,1.815862656E-1
1.195428535E1,-1.231133342E0,1.621652126E0,-9.671163559E-2
1.196221992E1,-2.202856541E0,2.038226604E0,-1.916937828E-1
1.197009346E1,-2.894520283E0,2.093499184E0,6.326594353E-1
1.197802803E1,-2.995229721E0,1.817056179E0,2.049385548E0
1.198593208E1,-2.501940966E0,9.962091446E-1,2.663102627E0
1.199380562E1,-1.544492483E0,4.152154922E-2,2.648818493E0
1.200174019E1,-5.020389557E-1,-9.166312218E-1,2.830981255E0
1.200961372E1,3.979767561E-1,-1.744178295E0,3.143967628E0
1.201760933E1,9.572629929E-1,-2.507097960E0,3.463208675E0
1.202554390E1,1.188010812E0,-3.146348000E0,3.405353069E0
1.203344795E1,1.134623289E0,-3.463149309E0,2.857248783E0
1.204141304E1,8.538646102E-1,-3.547318220E0,2.385738850E0
1.204928657E1,4.546785355E-1,-3.559934855E0,1.771839619E0
1.205722114E1,4.285511374E-2,-3.304429054E0,8.318476677E-1
1.206512520E1,-4.781360626E-1,-3.065475225E0,-2.665972710E-1
1.207299873E1,-7.871966362E-1,-2.726688623E0,-1.303545952E0
1.208096382E1,-1.051869631E0,-2.330669403E0,-2.247661114E0
1.208886787E1,-1.550316811E0,-1.826548100E0,-2.909798622E0
1.209674141E1,-1.761997342E0,-1.092553139E0,-3.509620190E0
1.210458443E1,-1.734342337E0,-5.309534073E-1,-3.658807755E0
1.211251900E1,-1.895173430E0,-3.903403282E-1,-2.294456005E0
1.212048408E1,-2.076437712E0,-4.243483543E-1,5.997185707E-1
1.212838814E1,-1.486765265E0,-3.294038773E-1,1.592470169E0
1.213635322E1,-1.074874401E0,-4.914507866E-1,1.779210567E0
1.214422676E1,-6.702675223E-1,-8.854947090E-1,1.702425480E0
1.215206978E1,-2.157463729E-1,-1.253720760E0,1.723859310E0
1.216003486E1,3.410540223E-1,-1.572900295E0,1.685794830E0
1.216790840E1,9.064530730E-1,-1.929044485E0,1.082241535E0
1.217581245E1,1.356662154E0,-2.244215012E0,-5.700731277E-2
1.218374702E1,1.456345677E0,-2.454149008E0,-1.132474899E0
1.219162056E1,1.460132837E0,-2.533110857E0,-1.505675316E0
1.219955513E1,1.329541564E0,-2.484320879E0,-1.345668793E0
1.220755073E1,1.038452387E0,-2.495840073E0,-1.451577663E0
1.221542427E1,5.808755755E-1,-2.355731964E0,-2.289574623E0
1.222329780E1,6.339710951E-2,-1.961830616E0,-3.115404606E0
1.223117134E1,-4.802485108E-1,-1.497026443E0,-3.570554256E0
1.223913643E1,-1.057366967E0,-1.108492851E0,-3.713292599E0
1.224700996E1,-1.412526846E0,-7.976942062E-1,-3.618705750E0
1.225497505E1,-1.670044422E0,-5.260252953E-1,-3.076372623E0
1.226287910E1,-1.966554403E0,-4.002480507E-1,-2.626302719E0
1.227075264E1,-2.018917084E0,-2.685785294E-1,-2.126002789E0
1.227868721E1,-1.573480368E0,-1.587185860E-1,-1.358935833E0
1.228656074E1,-1.312380314E0,-2.717089653E-1,-8.393669128E-2
1.229440376E1,-1.107338548E0,-4.223933220E-1,9.115900993E-1
1.230230781E1,-7.071570158E-1,-3.385267258E-1,3.610324860E-1
1.231021187E1,-5.419902802E-1,-2.950754166E-1,-5.919599533E-2
1.231814644E1,-3.903654218E-1,-3.207135201E-1,-5.091876984E-1
1.232605049E1,-2.706944942E-2,-2.489709854E-2,-9.795989990E-1
1.233401558E1,2.209517956E-1,2.924942970E-1,-1.522396088E0
1.234191963E1,1.889840961E-1,3.308973312E-1,-1.587387085E0
1.234979317E1,-6.579577923E-3,3.043961525E-1,-1.534404755E0
1.235772774E1,-2.020311952E-1,3.141083717E-1,-1.483693600E0
1.236560127E1,-3.317629397E-1,4.096293449E-1,-1.537565231E0
1.237353584E1,-4.687671363E-1,4.694690704E-1,-1.492883205E0
1.238143989E1,-6.645985842E-1,4.768457413E-1,-1.428525448E0
1.238931343E1,-4.071684182E-1,4.394359589E-1,-1.289782524E0
1.239724800E1,1.202145219E-1,3.891510963E-1,-5.913329124E-1
1.240512154E1,-1.087461710E-1,1.593637466E-1,1.022745132E0
1.241305610E1,-2.412063479E-1,1.789407730E-1,2.162205219E0
1.242096016E1,4.745948315E-2,6.378173828E-1,1.915376186E0
1.242883369E1,-2.855232358E-1,9.547457695E-1,2.078315735E0
1.243676826E1,-5.907201171E-1,1.263963223E0,1.908396244E0
1.244464180E1,-6.515516639E-1,1.690190315E0,1.817384243E0
1.245257637E1,-9.669035673E-1,2.115765572E0,1.886798859E0
1.246044990E1,-1.379163504E0,2.473951817E0,2.060916424E0
1.246832344E1,-1.510004044E0,2.695322514E0,2.335185528E0
1.247625801E1,-1.377949476E0,2.726047039E0,2.766016483E0
1.248416206E1,-1.387291670E0,2.609479904E0,2.663683414E0
1.249206612E1,-1.425650239E0,2.538538456E0,1.814341068E0
1.249997017E1,-1.223187089E0,2.398258209E0,1.208245754E0
1.250784370E1,-4.727247357E-1,2.054115295E0,9.565877914E-1
1.251577827E1,3.105062246E-1,1.537086487E0,6.114988327E-1
1.252426216E1,9.182363749E-1,6.832590103E-1,6.220383644E-1
1.253164741E1,1.454849482E0,-2.080726624E-1,1.408126831E0
1.253952095E1,2.254318714E0,-1.198801041E0,2.782678604E0
1.254742500E1,2.876961708E0,-2.111084461E0,4.187573910E0
1.255535957E1,3.187803030E0,-2.845639467E0,5.143179893E0
1.256329414E1,3.295648336E0,-3.394284725E0,5.484326839E0
1.257116768E1,3.097719431E0,-3.751654387E0,5.003672600E0
1.257907173E1,2.719918966E0,-3.894130707E0,3.826002598E0
1.258691475E1,2.203296661E0,-3.850204945E0,2.253346920E0
1.259491035E1,1.458001018E0,-3.594321251E0,7.446618080E-1
1.260278389E1,4.591770768E-1,-3.076490879E0,-3.947582245E-1
1.261074898E1,-6.326954365E-1,-2.429959297E0,-1.217638016E0
1.261862251E1,-1.577549458E0,-1.770259857E0,-1.717950821E0
1.262649605E1,-2.323695183E0,-1.182322502E0,-2.305710316E0
1.263446114E1,-2.909267902E0,-6.547646523E-1,-2.986886501E0
1.264236519E1,-2.898539305E0,-2.711572647E-1,-3.248521805E0
1.265029976E1,-2.501758575E0,-2.211737633E-1,-2.895507336E0
1.265817329E1,-2.135325432E0,-4.001293182E-1,-2.224954605E0
1.266604683E1,-1.629182458E0,-5.939464569E-1,-1.656481266E0
1.267401192E1,-1.030061245E0,-8.950390816E-1,-1.109703064E0
1.268194649E1,-1.019871235E-1,-1.169497967E0,-2.687921524E-1
1.268982002E1,7.464177012E-1,-1.484694481E0,9.111580849E-1
1.269769356E1,1.252389431E0,-1.715564728E0,1.776682854E0
1.270565864E1,1.466647506E0,-1.818429947E0,2.136729717E0
1.271359322E1,1.378486872E0,-1.773287296E0,1.980616570E0
1.272146675E1,1.110336304E0,-1.655971527E0,1.753167152E0
1.272943184E1,7.274470329E-1,-1.488325596E0,1.200413704E0
1.273733589E1,2.968384624E-1,-1.309626579E0,5.788669586E-1
1.274523994E1,-2.013206482E-1,-1.095469475E0,-2.244062424E-1
1.275320503E1,-5.946484804E-1,-8.726096153E-1,-6.576466560E-1
1.276110908E1,-8.097829223E-1,-6.950402260E-1,-1.037769794E0
1.276907417E1,-1.071853757E0,-5.982475281E-1,-1.421760082E0
1.277694771E1,-1.378004670E0,-4.826931953E-1,-1.969830036E0
1.278485176E1,-1.469825029E0,-3.987255096E-1,-2.034486294E0
1.279278633E1,-1.393976808E0,-5.238676071E-1,-1.770484447E0
1.280069038E1,-1.107652187E0,-7.586789131E-1,-1.684569836E0
1.280862495E1,-8.374606371E-1,-1.000891685E0,-1.725812912E0
1.281652901E1,-3.694311678E-1,-1.139990807E0,-1.844261646E0
1.282440254E1,7.526516914E-2,-1.162855148E0,-2.115067959E0
1.283233711E1,2.604038715E-1,-1.209962368E0,-2.388014793E0
1.284021065E1,3.585019708E-1,-1.097927094E0,-2.506128788E0
1.284811470E1,3.802752495E-1,-9.048047066E-1,-2.415153503E0
1.285601875E1,3.112640977E-1,-8.581414223E-1,-2.160510063E0
1.286395332E1,1.842532754E-1,-7.256636620E-1,-1.833154202E0
1.287185738E1,5.869805813E-3,-6.112623215E-1,-1.590364933E0
1.287976143E1,-1.315045357E-1,-4.889478683E-1,-1.467720509E0
1.288763496E1,-1.355218887E-1,-3.012299538E-1,-1.436448097E0
1.289550850E1,-1.599752903E-2,-1.697983742E-1,-1.434606552E0
1.290341255E1,6.802368760E-1,5.907964706E-2,-1.484193325E0
1.291137764E1,5.676774979E-1,-8.805274963E-2,-1.101947308E0
1.291928169E1,7.685550451E-1,5.009174347E-3,-8.035907745E-1
1.292721626E1,8.406821489E-1,1.128559113E-1,-5.721340179E-1
1.293508980E1,6.254154444E-1,3.905754089E-1,-2.179732323E-1
1.294296333E1,2.307322025E-1,7.772102356E-1,4.633741379E-1
1.295092842E1,-2.825961113E-1,9.822669029E-1,1.501208782E0
1.295883247E1,-6.554323435E-1,1.172403336E0,1.866286278E0
1.296676704E1,-5.271589160E-1,1.482522011E0,1.306171894E0
1.297467110E1,-3.406271935E-1,1.591269493E0,1.176653862E0
1.298254463E1,-2.023440152E-1,1.620391846E0,1.027220249E0
1.299047920E1,2.576321363E-3,1.646887779E0,1.026136398E0
1.299835274E1,2.123791277E-1,1.778000355E0,1.217298985E0
1.300631782E1,1.336201727E-1,1.952142715E0,1.483307362E0
1.301422188E1,-1.373334676E-1,2.216202259E0,1.376742363E0
1.302209541E1,-8.406020403E-1,2.594085217E0,8.425993919E-1
1.303006050E1,-1.667102456E0,3.051791191E0,3.982114792E-2
1.303793404E1,-2.260899782E0,3.148938179E0,-5.160589218E-1
1.304586860E1,-2.186761856E0,2.754880905E0,5.698680878E-3
1.305377266E1,-1.576489925E0,1.797281265E0,1.277897835E0
1.306164619E1,-5.373171568E-1,5.403251648E-1,2.544894695E0
1.306958076E1,6.249926090E-1,-7.415175438E-1,3.893307686E0
1.307745430E1,1.592552781E0,-1.733730316E0,5.156347752E0
1.308532783E1,2.373998165E0,-2.520244122E0,6.237303257E0
1.309323189E1,2.714663744E0,-2.986535072E0,6.757018089E0
1.310110542E1,2.554517269E0,-3.111253262E0,6.518130302E0
1.310907051E1,1.917375326E0,-2.941114664E0,5.238451481E0
1.311694404E1,1.198526859E0,-2.561119556E0,3.494087219E0
1.312487862E1,2.629469335E-1,-2.092538834E0,1.632791996E0
1.313275215E1,-1.008678198E0,-1.613947392E0,1.557497978E-1
1.314062569E1,-2.158242702E0,-1.139314651E0,-1.108721733E0
1.314859077E1,-2.540854454E0,-8.708090782E-1,-2.759745121E0
1.315646431E1,-2.509356976E0,-8.216805458E-1,-3.698159695E0
1.316433784E1,-2.466870308E0,-8.945441246E-1,-4.020681381E0
1.317221138E1,-2.466539860E0,-8.547482491E-1,-3.875402689E0
1.318008491E1,-2.283226728E0,-8.821811676E-1,-3.223577976E0
1.318801948E1,-2.270017862E0,-1.078888893E0,-1.027035713E0
1.319592354E1,-1.703588963E0,-9.728784561E-1,2.731986046E-1
1.320385811E1,-9.708062410E-1,-9.938807487E-1,1.103478909E0
1.321173164E1,-5.700702667E-1,-1.230832100E0,2.462282181E0
1.321963570E1,-1.568864584E-1,-1.388299942E0,3.140343666E0
1.322757026E1,2.123015821E-1,-1.507931709E0,3.264529705E0
1.323547432E1,5.525747538E-1,-1.705328941E0,2.781883717E0
1.324340889E1,9.783114791E-1,-2.003556490E0,1.968094349E0
1.325128242E1,1.398071766E0,-2.235004425E0,1.313889027E0
1.325921699E1,1.667970538E0,-2.463958502E0,5.092225075E-1
1.326718208E1,1.642111182E0,-2.541971922E0,-2.132287025E-1
1.327511665E1,1.308469057E0,-2.407381773E0,-9.146575928E-1
1.328305122E1,8.687804937E-1,-2.110248804E0,-1.305598259E0
1.329092476E1,3.897795081E-1,-1.877440453E0,-1.637864590E0
1.329882881E1,1.553714275E-2,-1.711174011E0,-1.844402790E0
1.330679390E1,-4.340171814E-1,-1.463116646E0,-1.814969063E0
1.331469795E1,-8.734582067E-1,-1.173824310E0,-1.810769081E0
1.332263252E1,-1.263127446E0,-8.151860237E-1,-1.929435253E0
1.333050606E1,-1.717568517E0,-5.741972923E-1,-2.175406456E0
1.333837959E1,-2.191051006E0,-4.928536415E-1,-2.465679646E0
1.334634468E1,-2.146416664E0,-3.359651566E-1,-3.131119251E0
1.335421822E1,-1.718142509E0,-3.100152016E-1,-3.887888908E0
1.336212227E1,-1.082011223E0,-5.394415855E-1,-4.507642746E0
1.336999580E1,-3.371989727E-1,-8.010721207E-1,-4.800865173E0
1.337793037E1,2.870668769E-1,-8.346147537E-1,-4.637372017E0
1.338589546E1,4.468945265E-1,-7.440972328E-1,-3.891708851E0
1.339376900E1,1.739841104E-1,-7.045125961E-1,-2.650134087E0
1.340173408E1,-1.779924631E-1,-6.109576225E-1,-1.145098209E0
1.340960762E1,-9.475890398E-1,-4.649496078E-1,2.213706970E0
1.341748115E1,-8.351477385E-1,5.279541016E-3,2.910859108E0
1.342544624E1,-4.062300920E-1,4.296603203E-1,2.200907707E0
1.343331978E1,-7.578865290E-1,5.375986099E-1,1.852517128E0
1.344125435E1,-1.040758371E0,3.464140892E-1,1.286602020E0
1.344912788E1,-6.382275224E-1,5.162310600E-1,3.471732140E-1
1.345703194E1,-7.359337807E-2,8.453435898E-1,5.599975586E-2
1.346496651E1,-1.276412606E-1,8.291764259E-1,3.440427780E-2
1.347290108E1,2.332085371E-2,9.324774742E-1,1.069555283E-1
1.348077461E1,4.334372282E-2,8.748292923E-1,6.246261597E-1
1.348867866E1,5.937945843E-2,6.447539330E-1,1.066843510E0
1.349655220E1,2.461571097E-1,2.989602089E-1,1.345161915E0
1.350448677E1,4.074466228E-1,1.542639732E-1,1.807701588E0
1.351245186E1,3.335353732E-1,3.190069199E-1,2.404614925E0
1.352038643E1,2.338314652E-1,6.181898117E-1,2.634038925E0
1.352829048E1,3.326177597E-2,8.436098099E-1,2.526843071E0
1.353628609E1,-4.283135235E-1,1.019639492E0,2.790225983E0
1.354425117E1,-7.397862673E-1,1.187764645E0,2.557606697E0
1.355221626E1,-8.558396101E-1,1.380819321E0,1.917457104E0
1.356015083E1,-9.863052964E-1,1.577078342E0,1.297411442E0
1.356805488E1,-1.034292698E0,1.698356628E0,1.008846760E0
1.357592842E1,-8.045073748E-1,1.711696625E0,7.495455742E-1
1.358389351E1,-4.607206583E-1,1.617507458E0,5.860137939E-1
1.359179756E1,-2.561369538E-1,1.400413513E0,7.178692818E-1
1.359970161E1,-3.981292248E-2,9.653916359E-1,1.658948898E0
1.360757515E1,5.162461996E-1,3.094897270E-1,2.951535702E0
1.361547920E1,1.032431245E0,-3.492531776E-1,4.235124588E0
1.362344429E1,1.672120214E0,-1.247066975E0,5.375596046E0
1.363134834E1,2.034284592E0,-1.891249180E0,5.462441444E0
1.363928291E1,2.180526257E0,-2.552257299E0,4.872132778E0
1.364718697E1,2.079192877E0,-3.031810999E0,3.815701485E0
1.365506050E1,1.807641983E0,-3.225484133E0,2.565490246E0
1.366302559E1,1.479789853E0,-3.135958433E0,1.138946533E0
1.367096016E1,1.102084041E0,-2.919062614E0,-1.978874207E-2
1.367895576E1,7.061183453E-1,-2.716560125E0,-4.183664322E-1
1.368682930E1,2.742172480E-1,-2.474596977E0,-9.727811813E-1
1.369476387E1,1.511335373E-3,-2.048817158E0,-1.470985889E0
1.370269844E1,-3.213281631E-1,-1.854798794E0,-2.064482212E0
1.371057197E1,-4.952718616E-1,-1.749825478E0,-2.445257664E0
1.371844551E1,-3.174643517E-1,-1.549165726E0,-2.895421028E0
1.372631904E1,-6.815409660E-2,-1.449559212E0,-2.689126492E0
1.373422310E1,-4.001069069E-2,-1.637375355E0,-1.325446129E0
1.374218819E1,1.994259357E-1,-1.792631626E0,-2.750625610E-1
1.375006172E1,6.405016184E-1,-1.860402584E0,5.014190674E-1
1.375799629E1,9.648855925E-1,-2.010623693E0,1.354980946E0
1.376590034E1,1.076693416E0,-2.169947624E0,1.873753548E0
1.377380440E1,1.046490908E0,-2.165751457E0,1.960461617E0
1.378173897E1,6.907029152E-1,-2.116918564E0,1.614249229E0
1.378961250E1,2.713607550E-1,-1.959211111E0,9.769268036E-1
1.379748604E1,-2.064173222E-1,-1.653437614E0,5.757236481E-2
1.380535957E1,-6.831505895E-1,-1.426896095E0,-4.961519241E-1
1.381323311E1,-9.073572159E-1,-1.255218983E0,-7.701797485E-1
1.382116768E1,-9.931228757E-1,-1.081109524E0,-1.329822063E0
1.382904121E1,-1.221770525E0,-1.033787727E0,-2.000481606E0
1.383697578E1,-1.435668230E0,-1.046782494E0,-2.692394733E0
1.384497139E1,-1.660440922E0,-1.128393650E0,-2.893887997E0
1.385287544E1,-1.518217921E0,-1.103218079E0,-3.237716198E0
1.386081001E1,-9.472984076E-1,-1.037647724E0,-3.736533642E0
1.386874458E1,-4.679303765E-1,-1.139300346E0,-4.201595306E0
1.387667915E1,-4.514342546E-2,-1.236428261E0,-4.430515289E0
1.388458320E1,4.073376060E-1,-1.205359459E0,-4.247229576E0
1.389248726E1,6.894825101E-1,-1.229393959E0,-3.729187965E0
1.390042183E1,7.013243437E-1,-1.316335678E0,-2.890323639E0
1.390832588E1,3.953016996E-1,-1.229321957E0,-1.360113621E0
1.391619942E1,-3.217279911E-2,-1.015627861E0,3.826026917E-1
1.392407295E1,2.458117604E-1,-5.385475159E-1,-1.950745583E-1
1.393194649E1,1.508393288E-1,-3.001189232E-1,-3.819727898E-1
1.393988106E1,-1.346520782E-1,-3.682789803E-1,4.440689087E-2
1.394775459E1,-5.256056786E-2,-3.616571426E-1,2.811784744E-1
1.395565864E1,2.288655639E-1,-2.672796249E-1,2.721567154E-1
1.396359322E1,3.124647737E-1,-1.766066551E-1,4.823093414E-1
1.397146675E1,2.619253397E-1,-6.925296783E-2,8.382434845E-1
1.397940132E1,2.690768242E-1,1.232433319E-1,1.062614441E0
1.398733589E1,2.168853879E-1,3.198328018E-1,1.068748474E0
1.399520943E1,1.724851131E-2,4.224262238E-1,1.112736702E0
1.400311348E1,-1.646407843E-1,5.150594711E-1,1.146543503E0
1.401101753E1,-2.254773378E-1,6.762909889E-1,1.048350334E0
1.401895210E1,-2.876203060E-1,8.630366325E-1,9.570522308E-1
1.402688667E1,-2.669246793E-1,9.924497604E-1,1.123397827E0
1.403485176E1,-2.444292307E-1,9.409785271E-1,1.410095215E0
1.404272530E1,-8.847445250E-2,8.113989830E-1,1.826704979E0
1.405062935E1,2.775245905E-2,6.442589760E-1,2.359101295E0
1.405859444E1,3.387665749E-2,5.289745331E-1,2.807539940E0
1.406652901E1,2.592954040E-2,6.188416481E-1,2.872305870E0
1.407446358E1,-2.022672296E-1,8.379173279E-1,2.324963570E0
1.408236763E1,-6.967553496E-1,9.821591377E-1,1.255434990E0
1.409027168E1,-1.208237410E0,1.148986340E0,3.690433502E-2
1.409823677E1,-1.577081800E0,1.232533932E0,-1.122432232E0
1.410611030E1,-1.639086008E0,1.301051617E0,-1.857872486E0
1.411398384E1,-1.426816344E0,1.236577034E0,-1.599777222E0
1.412188789E1,-1.330883980E0,6.308941841E-1,-2.867550850E-1
1.412976143E1,-5.554712415E-1,-1.783180237E-2,1.271200657E0
1.413772652E1,3.826777339E-1,-6.355805397E-1,2.800128937E0
1.414560005E1,1.281361818E0,-1.070821762E0,4.630459785E0
1.415353462E1,1.757926106E0,-1.505114079E0,6.562633514E0
1.416140816E1,2.029269934E0,-1.865733862E0,7.563146591E0
1.416928169E1,2.174094677E0,-2.183600664E0,7.473769188E0
1.417721626E1,1.985053182E0,-2.552330494E0,6.641212463E0
1.418512031E1,1.473839402E0,-2.843009710E0,5.231263161E0
1.419299385E1,9.801054597E-1,-2.998585701E0,3.308207512E0
1.420089790E1,6.068718433E-1,-3.057470798E0,1.324645996E0
1.420877144E1,1.180835068E-1,-3.039797306E0,-3.956170082E-1
1.421673653E1,-3.108751774E-1,-2.948411226E0,-1.340873718E0
1.422461006E1,-5.326108932E-1,-2.738173485E0,-2.003870010E0
1.423254463E1,-8.291495442E-1,-2.521755457E0,-2.437207699E0
1.424044868E1,-1.057297230E0,-2.186721802E0,-3.334999561E0
1.424838325E1,-1.474858165E0,-1.679646015E0,-3.923356533E0
1.425631782E1,-2.109593391E0,-1.141336441E0,-3.847393513E0
1.426431343E1,-2.713024855E0,-8.288793564E-1,-3.316543579E0
1.427224800E1,-3.214261055E0,-6.707797050E-1,-9.561829567E-1
1.428015205E1,-2.965038300E0,-3.799877167E-1,5.312347412E-1
1.428805610E1,-2.373913288E0,1.430034637E-3,5.128412247E-1
1.429602119E1,-2.333518744E0,5.241394043E-3,7.714405060E-1
1.430389473E1,-2.371512175E0,-2.977042198E-1,1.171376228E0
1.431176826E1,-1.630660057E0,-4.099283218E-1,1.332007408E0
1.431961128E1,-8.532907963E-1,-5.043401718E-1,8.141183853E-1
1.432754585E1,-4.888735712E-1,-7.758769989E-1,1.291561127E-2
1.433551094E1,-3.399117589E-1,-1.029407501E0,-6.355443001E-1
1.434341499E1,-1.204555035E-1,-1.128394127E0,-1.317398071E0
1.435138008E1,6.717455387E-2,-1.180797100E0,-1.663164616E0
1.435928413E1,3.300478458E-1,-1.347757816E0,-1.836890697E0
1.436715767E1,4.194066525E-1,-1.564544201E0,-1.709591389E0
1.437512276E1,4.958322644E-1,-1.572385311E0,-1.389206409E0
1.438299629E1,5.769655704E-1,-1.613122702E0,-1.285869122E0
1.439093086E1,5.030383468E-1,-1.582108736E0,-1.324778080E0
1.439880440E1,3.056688905E-1,-1.474774837E0,-1.531967163E0
1.440667793E1,6.747329235E-2,-1.211320877E0,-1.591818333E0
1.441461250E1,-3.268423676E-1,-8.218975067E-1,-1.462049961E0
1.442248604E1,-6.998059154E-1,-4.734201431E-1,-1.524028301E0
1.443045113E1,-1.021382451E0,-2.106781006E-1,-1.797286034E0
1.443835518E1,-1.225440741E0,-1.045885086E-1,-1.853373528E0
1.444622871E1,-1.144666910E0,-1.016993523E-1,-1.742855072E0
1.445419380E1,-7.369983792E-1,-2.482748032E-1,-1.386102676E0
1.446212837E1,-2.889416516E-1,-4.808182716E-1,-1.098653793E0
1.447009346E1,1.760482788E-3,-6.371703148E-1,-1.014447689E0
1.447799751E1,1.386660337E-2,-6.479072571E-1,-9.037246704E-1
1.448587105E1,1.494890451E-2,-5.107960701E-1,-8.405466080E-1
1.449380562E1,-4.843378067E-2,-3.121824265E-1,-8.606476784E-1
1.450167915E1,-1.950254440E-1,-7.597732544E-2,-7.893095016E-1
1.450955269E1,-1.691452265E-1,1.001992226E-1,-7.587785721E-1
1.451742622E1,-4.257565737E-2,2.362651825E-1,-5.397477150E-1
1.452545235E1,1.557003260E-1,2.944827080E-1,-8.329391479E-3
1.453341743E1,2.774972916E-1,4.165482521E-1,3.277769089E-1
1.454129097E1,2.275372744E-1,5.116844177E-1,4.169349670E-1
1.454925606E1,6.236088276E-2,5.948758125E-1,5.231227875E-1
1.455716011E1,-6.267708540E-2,6.924324036E-1,7.136726379E-1
1.456503364E1,-1.107926965E-1,6.914544106E-1,1.077216148E0
1.457299873E1,1.058789492E-1,6.381754875E-1,1.648065567E0
1.458087227E1,2.163642049E-1,5.936942101E-1,2.079733849E0
1.458880684E1,8.487373590E-2,6.633901596E-1,2.327343941E0
1.459671089E1,-1.487721801E-1,7.648334503E-1,2.730463982E0
1.460458443E1,-3.211547136E-1,8.294768333E-1,3.058469772E0
1.461267158E1,-3.598155677E-1,8.374519348E-1,2.947118759E0
1.462054512E1,-3.445726037E-1,9.321541786E-1,2.359806538E0
1.462841865E1,-4.574750960E-1,1.083273888E0,1.440641880E0
1.463632271E1,-5.672196150E-1,1.270244122E0,6.302142143E-1
1.464419624E1,-6.210281253E-1,1.514513016E0,-1.709456444E-1
1.465213081E1,-7.786232233E-1,1.886938572E0,-5.908093452E-1
1.466006538E1,-9.778108001E-1,2.126635551E0,-4.179029465E-1
1.466806099E1,-1.096344233E0,1.993916988E0,1.135387421E-1
1.467593452E1,-8.409967422E-1,1.494406223E0,1.158345699E0
1.468380806E1,-1.661514640E-1,7.721161842E-1,2.715701580E0
1.469174263E1,6.505733132E-1,-4.611349106E-2,4.303294182E0
1.469961616E1,1.318010569E0,-8.346567154E-1,5.182708740E0
1.470755073E1,1.716310978E0,-1.539041996E0,5.808234692E0
1.471542427E1,1.856855512E0,-2.129986048E0,5.883643627E0
1.472332832E1,1.918120265E0,-2.632051706E0,4.321804047E0
1.473129341E1,1.523235798E0,-3.175753593E0,2.921224594E0
1.473916695E1,1.220383406E0,-3.355155468E0,1.536131382E0
1.474704048E1,9.992173910E-1,-3.190961123E0,1.901140213E-1
1.475491402E1,4.423128963E-1,-2.887542725E0,-6.941881180E-1
1.476278755E1,-2.403681278E-1,-2.508943319E0,-1.440252781E0
1.477072212E1,-7.051835656E-1,-2.160871267E0,-2.030331612E0
1.477865669E1,-8.700846434E-1,-1.921173096E0,-2.206302643E0
1.478659126E1,-8.557715416E-1,-1.652605534E0,-2.256882668E0
1.479449531E1,-8.116788268E-1,-1.466811657E0,-2.204487324E0
1.480236885E1,-6.176769733E-1,-1.302677155E0,-2.291652203E0
1.481030342E1,-5.282953382E-1,-1.225203037E0,-2.177399635E0
1.481823799E1,-4.371564686E-1,-1.138747692E0,-1.761111259E0
1.482611153E1,-2.034618855E-1,-1.092142582E0,-1.245701313E0
1.483395454E1,6.355208158E-2,-1.130502701E0,-6.919622421E-1
1.484185860E1,3.722847104E-1,-1.240540028E0,3.968572617E-2
1.484982368E1,7.381499410E-1,-1.408443928E0,6.615600586E-1
1.485775825E1,9.379988909E-1,-1.510302067E0,1.015357971E0
1.486569282E1,8.735208511E-1,-1.584846973E0,1.208315849E0
1.487359688E1,8.072874546E-1,-1.599020958E0,1.148110390E0
1.488147041E1,7.090464234E-1,-1.552982330E0,8.315544128E-1
1.488940498E1,4.900547266E-1,-1.514056683E0,2.180948257E-1
1.489727852E1,2.418851852E-1,-1.419814587E0,-4.265065193E-1
1.490521309E1,-7.218044996E-2,-1.206604481E0,-1.089763165E0
1.491311714E1,-4.800999761E-1,-9.706382751E-1,-1.670288086E0
1.492102119E1,-8.392302394E-1,-7.767076492E-1,-2.247290611E0
1.492895576E1,-1.049081683E0,-6.689810753E-1,-2.569104671E0
1.493679878E1,-1.058098793E0,-6.644449234E-1,-2.743900776E0
1.494473335E1,-9.146022797E-1,-7.225375175E-1,-2.879291534E0
1.495263740E1,-6.715148091E-1,-7.963523865E-1,-2.976234913E0
1.496048042E1,-4.132227898E-1,-8.208599091E-1,-2.764402390E0
1.496847603E1,-1.308768392E-1,-8.557662964E-1,-2.241630554E0
1.497634956E1,2.181523442E-1,-9.045438766E-1,-1.622798443E0
1.498428413E1,4.707660675E-1,-8.881053925E-1,-1.071486473E0
1.499215767E1,5.551222563E-1,-8.508567810E-1,-5.987634659E-1
1.500003120E1,6.330513954E-1,-7.586007118E-1,-4.236655235E-1
1.500799629E1,6.149311662E-1,-6.645498276E-1,-4.476027489E-1
1.501586983E1,5.642318726E-1,-5.162129402E-1,-5.985565186E-1
1.502374336E1,4.815412164E-1,-3.603191376E-1,-6.355395317E-1
1.503161690E1,3.959378004E-1,-2.363605499E-1,-5.954656601E-1
1.503949043E1,2.834323645E-1,-1.941103935E-1,-4.451398849E-1
1.504748604E1,2.507144809E-1,-1.309733391E-1,-2.846608162E-1
1.505545113E1,1.875787377E-1,-8.366489410E-2,-7.880401611E-2
1.506341621E1,2.506489754E-1,2.740049362E-2,7.625293732E-2
1.507128975E1,1.693492532E-1,1.148443222E-1,-3.241539001E-2
1.507916328E1,9.027302265E-3,1.253089905E-1,-2.165551186E-1
1.508712837E1,-1.732326150E-1,1.347489357E-1,-2.620968819E-1
1.509497139E1,-2.848879695E-1,1.857838631E-1,-2.084555626E-1
1.510293648E1,-2.550493181E-1,2.388834953E-1,5.412006378E-2
1.511084053E1,-1.537248790E-1,2.423510551E-1,5.958003998E-1
1.511871406E1,-6.847065687E-2,2.132782936E-1,1.177496910E0
1.512664864E1,1.855993271E-2,1.788272858E-1,1.783452988E0
1.513452217E1,4.197472334E-2,2.950906754E-1,2.261807442E0
1.514251778E1,-1.076858342E-1,4.742379189E-1,2.413437843E0
1.515039131E1,-2.450350672E-1,6.025800705E-1,2.383603096E0
1.515826485E1,-2.930150628E-1,6.755599976E-1,2.287835121E0
1.516622993E1,-4.667857885E-1,7.682118416E-1,2.135180473E0
1.517410347E1,-7.893962264E-1,8.506927490E-1,1.752497673E0
1.518203804E1,-1.016150236E0,9.751296043E-1,1.054832458E0
1.518994209E1,-1.240564346E0,1.087010860E0,6.796026230E-1
1.519781563E1,-1.481665373E0,1.209588528E0,5.352821350E-1
1.520575020E1,-1.611831307E0,1.385707378E0,5.578947067E-1
1.521365425E1,-1.588736534E0,1.528267384E0,1.031185150E0
1.522155830E1,-1.960947514E0,1.027464390E0,1.638048172E0
1.522943184E1,-1.340876341E0,4.662547112E-1,2.102198601E0
1.523730537E1,-4.657486677E-1,-3.527193069E-1,2.668646812E0
1.524527046E1,7.141175866E-1,-1.325861454E0,3.728879929E0
1.525321842E1,1.852989554E0,-2.159999371E0,5.136131287E0
1.526118351E1,2.420355082E0,-2.739565134E0,5.805294991E0
1.526905704E1,2.523785830E0,-3.106327057E0,5.836149216E0
1.527693058E1,2.206711531E0,-3.345160246E0,5.129793167E0
1.528489567E1,1.623459578E0,-3.395093679E0,3.626635551E0
1.529276920E1,1.112565994E0,-3.214266062E0,1.777038574E0
1.530070377E1,5.061919093E-1,-2.849462271E0,2.784757614E-1
1.530860782E1,-1.371816695E-1,-2.424751520E0,-7.914829254E-1
1.531648136E1,-6.989434958E-1,-2.053083420E0,-1.543819904E0
1.532444645E1,-1.215040326E0,-1.632376671E0,-1.790516376E0
1.533228946E1,-1.835930467E0,-1.147992134E0,-1.826194286E0
1.534019352E1,-2.490066767E0,-7.249865532E-1,-1.817953587E0
1.534806705E1,-2.904466391E0,-3.924293518E-1,-1.813342571E0
1.535594059E1,-3.074678659E0,-1.658940315E-1,-1.621047020E0
1.536387516E1,-2.931782246E0,-1.214737892E-1,-1.348038197E0
1.537174869E1,-2.533575296E0,-3.508262634E-1,-8.453574181E-1
1.537971378E1,-1.931802869E0,-6.616268158E-1,-2.794961929E-1
1.538758732E1,-1.292983055E0,-1.012980461E0,9.485626221E-2
1.539549137E1,-7.683957219E-1,-1.339463234E0,1.945142746E-1
1.540342594E1,-2.928167582E-1,-1.568282127E0,9.766101837E-2
1.541126896E1,1.278826892E-1,-1.797960043E0,-9.963560104E-2
1.541917301E1,3.729012012E-1,-1.923177481E0,-3.512954712E-1
1.542704655E1,5.007483959E-1,-1.967345238E0,-7.277989388E-1
1.543495060E1,5.314447880E-1,-1.965825558E0,-1.114641666E0
1.544288517E1,5.167151093E-1,-1.907926798E0,-1.550971985E0
1.545081974E1,4.730660915E-1,-1.809192419E0,-1.573122501E0
1.545875431E1,4.200792313E-1,-1.628819466E0,-1.566820145E0
1.546659733E1,8.278620243E-2,-1.464748383E0,-1.486934185E0
1.547447086E1,-3.601849377E-1,-1.240711212E0,-1.215875149E0
1.548243595E1,-7.143429518E-1,-9.747300148E-1,-9.968843460E-1
1.549030948E1,-9.366236925E-1,-7.658047676E-1,-1.042311668E0
1.549815250E1,-1.033621550E0,-6.642265320E-1,-1.138935566E0
1.550605656E1,-1.024256945E0,-6.450853348E-1,-1.466985226E0
1.551402164E1,-9.947984815E-1,-6.739659309E-1,-1.780452728E0
1.552198673E1,-9.050637484E-1,-7.399067879E-1,-2.061076641E0
1.552986027E1,-5.863586664E-1,-7.027688026E-1,-2.173332214E0
1.553779484E1,-3.526615500E-1,-7.413468361E-1,-2.007571220E0
1.554566837E1,-2.942960262E-1,-7.417130470E-1,-1.625413895E0
1.555357242E1,-2.108139992E-1,-5.997180939E-1,-1.191389084E0
1.556150699E1,-2.781925201E-1,-4.645085335E-1,-7.410426140E-1
1.556938053E1,-3.538404107E-1,-3.209414482E-1,-3.306612968E-1
1.557734562E1,-4.193176627E-1,-2.257094383E-1,-3.254165649E-1
1.558524967E1,-4.216586947E-1,-1.604881287E-1,-5.186676979E-1
1.559312321E1,-3.757326007E-1,-3.618526459E-2,-5.539665222E-1
1.560108829E1,-1.816173196E-1,2.154064178E-2,-4.993314743E-1
1.560896183E1,-1.790428162E-2,7.708549500E-2,-4.219455719E-1
1.561692692E1,9.532678127E-2,1.112957001E-1,-4.079184532E-1
1.562480045E1,1.783147454E-1,8.625793457E-2,-4.789323807E-1
1.563273502E1,4.502780437E-1,3.047285080E-1,-4.728093147E-1
1.564070011E1,4.446848631E-1,2.784190178E-1,-3.774552345E-1
1.564866520E1,4.266685843E-1,2.777729034E-1,-2.453994751E-1
1.565663028E1,4.623714685E-1,2.741374969E-1,-2.851223946E-1
1.566450382E1,3.519996405E-1,3.019762039E-1,-2.340421677E-1
1.567240787E1,2.702856064E-2,3.950948715E-1,-2.180290222E-2
1.568034244E1,-3.729704022E-1,6.442804337E-1,5.472002029E-1
1.568824650E1,-6.877630353E-1,9.414296150E-1,1.468427658E0
1.569621158E1,-9.242836833E-1,1.217556477E0,2.219126701E0
1.570411564E1,-1.062478542E0,1.490610600E0,2.770825386E0
1.571201969E1,-1.159814954E0,1.657873154E0,3.091776848E0
1.571995426E1,-1.129356384E0,1.823385239E0,3.096919060E0
1.572785831E1,-1.040387750E0,2.027651787E0,2.635612965E0
1.573573185E1,-1.063589931E0,2.184669971E0,2.029434204E0
1.574363590E1,-9.653493762E-1,2.347404480E0,1.178522587E0
1.575150944E1,-9.364802241E-1,2.384040833E0,6.466526985E-1
1.575944401E1,-7.840958834E-1,2.265698910E0,4.347686768E-1
1.576731754E1,-4.132014513E-1,1.913727283E0,5.621228218E-1
1.577525211E1,2.073185444E-1,1.098016262E0,1.477210522E0
1.578309513E1,1.202453613E0,5.939531326E-2,2.565070629E0
1.579099918E1,2.204917908E0,-8.977804184E-1,3.790518761E0
1.579893375E1,2.766903162E0,-1.758315563E0,5.031279564E0
1.580683780E1,2.941953182E0,-2.387822866E0,5.751035213E0
1.581471134E1,2.901231050E0,-2.895536661E0,5.902373791E0
1.582261539E1,2.689259529E0,-3.233428955E0,5.104211330E0
1.583045841E1,2.062165737E0,-3.479928255E0,3.639224052E0
1.583842350E1,1.469616175E0,-3.566030741E0,2.378884315E0
1.584641910E1,1.135121107E0,-3.297268867E0,9.044537544E-1
1.585435367E1,5.853939056E-1,-2.952484846E0,-2.890448570E-1
1.586222721E1,-1.634910703E-1,-2.592499971E0,-1.286257267E0
1.587013126E1,-8.506207466E-1,-2.087338686E0,-2.135219097E0
1.587806583E1,-1.536011219E0,-1.535768509E0,-2.669398308E0
